# imu
# acceleration gyroscope
# timestamp ax ay az gx gy gz
1557969618.913975	-5.0678613281	0.1676513672	10.4949755859	0.3259709174	0.0117179078	0.0042610575
1557969618.914022	-5.1205517578	0.1676513672	10.4231250000	0.3270361819	0.0127831722	0.0053263222
1557969618.914037	-5.1301318359	0.1916015625	10.4087548828	0.3270361819	0.0138484366	0.0053263222
1557969618.914048	-5.0774414063	0.2155517578	10.5237158203	0.3281014463	0.0159789655	0.0053263222
1557969618.914059	-5.1013916016	0.1820214844	10.5955664063	0.3270361819	0.0149137011	0.0063915861
1557969618.914072	-5.1109716797	0.1484912109	10.5428759766	0.3259709174	0.0138484366	0.0063915861
1557969618.914084	-5.0630712891	0.1580712891	10.4806054688	0.3249056530	0.0127831722	0.0074568505
1557969618.914094	-5.0822314453	0.1484912109	10.4518652344	0.3259709174	0.0117179078	0.0074568505
1557969618.914106	-5.0966015625	0.1628613281	10.4614453125	0.3259709174	0.0106526444	0.0074568505
1557969618.914118	-5.0822314453	0.1916015625	10.4662353516	0.3259709174	0.0095873799	0.0074568505
1557969618.914134	-5.0726513672	0.1916015625	10.4901855469	0.3259709174	0.0117179078	0.0074568505
1557969618.914147	-5.0726513672	0.1772314453	10.4949755859	0.3291667107	0.0138484366	0.0074568505
1557969618.914159	-5.0774414063	0.1484912109	10.4470751953	0.3281014463	0.0117179078	0.0063915861
1557969618.914169	-5.0726513672	0.1245410156	10.4806054688	0.3281014463	0.0095873799	0.0053263222
1557969618.914175	-5.0678613281	0.1341210938	10.5189257813	0.3259709174	0.0095873799	0.0053263222
1557969618.914181	-5.0726513672	0.1580712891	10.4710253906	0.3249056530	0.0106526444	0.0053263222
1557969618.914188	-5.1013916016	0.1676513672	10.5045556641	0.3238403886	0.0127831722	0.0063915861
1557969618.914194	-5.1253417969	0.1772314453	10.5524560547	0.3249056530	0.0138484366	0.0063915861
1557969618.914200	-5.0870214844	0.1868115234	10.5428759766	0.3259709174	0.0127831722	0.0063915861
1557969618.914206	-5.0487011719	0.1676513672	10.4901855469	0.3259709174	0.0117179078	0.0074568505
1557969618.914212	-5.0151708984	0.1389111328	10.4853955078	0.3259709174	0.0127831722	0.0063915861
1557969618.921726	-5.0343310547	0.1245410156	10.5141357422	0.3249056530	0.0149137011	0.0053263222
1557969618.921743	-5.0726513672	0.1245410156	10.4374951172	0.3249056530	0.0159789655	0.0053263222
1557969618.921753	-5.0487011719	0.1293310547	10.3800146484	0.3259709174	0.0149137011	0.0053263222
1557969618.921759	-5.0103808594	0.1580712891	10.4087548828	0.3270361819	0.0127831722	0.0053263222
1557969618.921765	-5.0055908203	0.1963916016	10.4758154297	0.3270361819	0.0106526444	0.0053263222
1557969618.921772	-5.0199609375	0.1676513672	10.5380859375	0.3259709174	0.0095873799	0.0053263222
1557969618.921778	-5.0295410156	0.1245410156	10.4949755859	0.3249056530	0.0095873799	0.0053263222
1557969618.921784	-5.0534912109	0.1437011719	10.4327050781	0.3238403886	0.0106526444	0.0053263222
1557969618.921790	-5.0630712891	0.1916015625	10.4518652344	0.3259709174	0.0117179078	0.0053263222
1557969618.921796	-5.0534912109	0.2011816406	10.5141357422	0.3270361819	0.0117179078	0.0063915861
1557969618.933151	-5.0630712891	0.1580712891	10.5572460938	0.3259709174	0.0127831722	0.0063915861
1557969618.933185	-5.0774414063	0.1437011719	10.5716162109	0.3249056530	0.0138484366	0.0063915861
1557969618.933224	-5.1061816406	0.1916015625	10.5141357422	0.3259709174	0.0127831722	0.0063915861
1557969618.933251	-5.0918115234	0.2107617188	10.4806054688	0.3259709174	0.0106526444	0.0063915861
1557969618.933269	-5.0439111328	0.1580712891	10.5237158203	0.3259709174	0.0106526444	0.0053263222
1557969618.933284	-5.0247509766	0.1341210938	10.5332958984	0.3259709174	0.0117179078	0.0042610575
1557969618.933300	-5.0391210938	0.1580712891	10.5141357422	0.3270361819	0.0138484366	0.0053263222
1557969618.933315	-5.0439111328	0.1628613281	10.5045556641	0.3291667107	0.0149137011	0.0053263222
1557969618.933331	-5.0391210938	0.1484912109	10.5285058594	0.3291667107	0.0149137011	0.0063915861
1557969618.933347	-5.0630712891	0.1628613281	10.5093457031	0.3270361819	0.0138484366	0.0063915861
1557969618.942715	-5.0726513672	0.1772314453	10.4806054688	0.3249056530	0.0127831722	0.0053263222
1557969618.942739	-5.0966015625	0.1820214844	10.5524560547	0.3259709174	0.0117179078	0.0042610575
1557969618.942750	-5.0966015625	0.1868115234	10.5907763672	0.3270361819	0.0127831722	0.0042610575
1557969618.942760	-5.0439111328	0.1916015625	10.5093457031	0.3270361819	0.0127831722	0.0053263222
1557969618.942774	-5.0295410156	0.1724414063	10.4901855469	0.3270361819	0.0127831722	0.0053263222
1557969618.942785	-5.0343310547	0.1389111328	10.5189257813	0.3259709174	0.0127831722	0.0053263222
1557969618.942796	-5.0391210938	0.1484912109	10.5045556641	0.3259709174	0.0106526444	0.0042610575
1557969618.942805	-5.0534912109	0.1437011719	10.4901855469	0.3270361819	0.0106526444	0.0042610575
1557969618.942815	-5.0678613281	0.1293310547	10.4949755859	0.3281014463	0.0106526444	0.0042610575
1557969618.942824	-5.0870214844	0.1532812500	10.4853955078	0.3281014463	0.0127831722	0.0042610575
1557969618.953412	-5.1205517578	0.1628613281	10.4518652344	0.3281014463	0.0138484366	0.0042610575
1557969618.953438	-5.0966015625	0.1724414063	10.4614453125	0.3281014463	0.0127831722	0.0053263222
1557969618.953446	-5.0726513672	0.1724414063	10.5045556641	0.3270361819	0.0149137011	0.0063915861
1557969618.953453	-5.0630712891	0.1532812500	10.5189257813	0.3259709174	0.0159789655	0.0063915861
1557969618.953461	-5.0343310547	0.1628613281	10.5189257813	0.3249056530	0.0138484366	0.0053263222
1557969618.953468	-5.0487011719	0.2059716797	10.5285058594	0.3259709174	0.0138484366	0.0042610575
1557969618.953475	-5.0630712891	0.1963916016	10.5285058594	0.3259709174	0.0138484366	0.0053263222
1557969618.953481	-5.0582812500	0.1532812500	10.4758154297	0.3270361819	0.0127831722	0.0053263222
1557969618.953488	-5.0630712891	0.1628613281	10.4422851562	0.3281014463	0.0127831722	0.0063915861
1557969618.953496	-5.0774414063	0.1868115234	10.5045556641	0.3281014463	0.0149137011	0.0063915861
1557969618.963012	-5.0726513672	0.1724414063	10.5620361328	0.3259709174	0.0170442299	0.0053263222
1557969618.963031	-5.0774414063	0.1293310547	10.5332958984	0.3249056530	0.0170442299	0.0053263222
1557969618.963038	-5.0534912109	0.1149609375	10.4758154297	0.3238403886	0.0149137011	0.0053263222
1557969618.963045	-5.0295410156	0.1484912109	10.4614453125	0.3238403886	0.0127831722	0.0053263222
1557969618.963055	-5.0391210938	0.1389111328	10.4901855469	0.3249056530	0.0127831722	0.0042610575
1557969618.963063	-5.0247509766	0.1053808594	10.5045556641	0.3259709174	0.0127831722	0.0042610575
1557969618.963073	-5.0247509766	0.1341210938	10.4614453125	0.3259709174	0.0138484366	0.0042610575
1557969618.963081	-5.0439111328	0.1580712891	10.4470751953	0.3259709174	0.0127831722	0.0053263222
1557969618.963087	-5.0295410156	0.1341210938	10.4662353516	0.3259709174	0.0127831722	0.0053263222
1557969618.963093	-5.0582812500	0.1437011719	10.4997656250	0.3259709174	0.0138484366	0.0053263222
1557969618.971913	-5.0822314453	0.1628613281	10.5285058594	0.3270361819	0.0138484366	0.0053263222
1557969618.971936	-5.0870214844	0.1437011719	10.5476660156	0.3270361819	0.0127831722	0.0063915861
1557969618.971943	-5.0918115234	0.1293310547	10.5332958984	0.3249056530	0.0138484366	0.0063915861
1557969618.971949	-5.0870214844	0.1341210938	10.4853955078	0.3238403886	0.0149137011	0.0042610575
1557969618.971955	-5.0870214844	0.1389111328	10.4806054688	0.3249056530	0.0138484366	0.0042610575
1557969618.971961	-5.0966015625	0.1484912109	10.4806054688	0.3270361819	0.0127831722	0.0042610575
1557969618.971967	-5.1061816406	0.1580712891	10.4806054688	0.3270361819	0.0127831722	0.0042610575
1557969618.971973	-5.0678613281	0.1580712891	10.5045556641	0.3270361819	0.0127831722	0.0042610575
1557969618.971979	-5.0487011719	0.1532812500	10.5189257813	0.3270361819	0.0117179078	0.0042610575
1557969618.971985	-5.0726513672	0.1437011719	10.4614453125	0.3259709174	0.0127831722	0.0042610575
1557969618.982934	-5.0918115234	0.1149609375	10.4231250000	0.3259709174	0.0138484366	0.0053263222
1557969618.982948	-5.1109716797	0.1245410156	10.4087548828	0.3249056530	0.0138484366	0.0063915861
1557969618.982959	-5.0822314453	0.1628613281	10.4135449219	0.3249056530	0.0127831722	0.0063915861
1557969618.982965	-5.0582812500	0.1580712891	10.4758154297	0.3259709174	0.0127831722	0.0053263222
1557969618.982972	-5.0774414063	0.1580712891	10.5141357422	0.3270361819	0.0117179078	0.0053263222
1557969618.982978	-5.1205517578	0.1868115234	10.4901855469	0.3270361819	0.0127831722	0.0063915861
1557969618.982984	-5.1397119141	0.1724414063	10.4806054688	0.3270361819	0.0138484366	0.0074568505
1557969618.982990	-5.1109716797	0.1245410156	10.4758154297	0.3249056530	0.0159789655	0.0074568505
1557969618.982996	-5.1109716797	0.1197509766	10.4710253906	0.3238403886	0.0159789655	0.0063915861
1557969618.983002	-5.1492919922	0.1532812500	10.4758154297	0.3249056530	0.0159789655	0.0063915861
1557969618.992828	-5.1445019531	0.1484912109	10.4518652344	0.3249056530	0.0159789655	0.0053263222
1557969618.992849	-5.0870214844	0.1293310547	10.4470751953	0.3259709174	0.0149137011	0.0042610575
1557969618.992861	-5.0678613281	0.1484912109	10.5141357422	0.3249056530	0.0159789655	0.0042610575
1557969618.992871	-5.0822314453	0.1772314453	10.4853955078	0.3249056530	0.0159789655	0.0031957930
1557969618.992880	-5.0774414063	0.1820214844	10.3943847656	0.3259709174	0.0127831722	0.0042610575
1557969618.992890	-5.0678613281	0.1532812500	10.4231250000	0.3281014463	0.0106526444	0.0042610575
1557969618.992900	-5.0966015625	0.1628613281	10.4662353516	0.3281014463	0.0106526444	0.0042610575
1557969618.992909	-5.1253417969	0.1580712891	10.4758154297	0.3270361819	0.0117179078	0.0053263222
1557969618.992919	-5.1301318359	0.1101708984	10.4901855469	0.3270361819	0.0127831722	0.0053263222
1557969618.992928	-5.1397119141	0.0910107422	10.4758154297	0.3270361819	0.0138484366	0.0042610575
1557969619.002653	-5.1301318359	0.1389111328	10.4949755859	0.3259709174	0.0138484366	0.0042610575
1557969619.002672	-5.1253417969	0.1772314453	10.5045556641	0.3238403886	0.0149137011	0.0042610575
1557969619.002680	-5.1109716797	0.1772314453	10.4614453125	0.3238403886	0.0149137011	0.0053263222
1557969619.002687	-5.0870214844	0.1868115234	10.4806054688	0.3249056530	0.0149137011	0.0063915861
1557969619.002693	-5.0774414063	0.1963916016	10.5620361328	0.3259709174	0.0149137011	0.0053263222
1557969619.002699	-5.0726513672	0.1963916016	10.5716162109	0.3259709174	0.0138484366	0.0053263222
1557969619.002705	-5.1109716797	0.1676513672	10.5141357422	0.3259709174	0.0138484366	0.0063915861
1557969619.002711	-5.1397119141	0.1628613281	10.4949755859	0.3249056530	0.0149137011	0.0063915861
1557969619.002717	-5.1205517578	0.1676513672	10.4997656250	0.3249056530	0.0149137011	0.0063915861
1557969619.002723	-5.1061816406	0.1580712891	10.5045556641	0.3249056530	0.0127831722	0.0063915861
1557969619.046244	-5.1157617187	0.1580712891	10.4901855469	0.3259709174	0.0117179078	0.0063915861
1557969619.046281	-5.1013916016	0.1724414063	10.4470751953	0.3281014463	0.0106526444	0.0063915861
1557969619.046291	-5.0870214844	0.1484912109	10.4710253906	0.3249056530	0.0117179078	0.0042610575
1557969619.046298	-5.0582812500	0.1484912109	10.4806054688	0.3259709174	0.0138484366	0.0053263222
1557969619.046305	-5.1205517578	0.1868115234	10.4374951172	0.3270361819	0.0117179078	0.0042610575
1557969619.046316	-5.1492919922	0.1245410156	10.4662353516	0.3270361819	0.0127831722	0.0063915861
1557969619.046323	-5.0870214844	0.1724414063	10.4949755859	0.3249056530	0.0095873799	0.0042610575
1557969619.046329	-5.0918115234	0.1437011719	10.5285058594	0.3291667107	0.0106526444	0.0042610575
1557969619.046340	-5.1253417969	0.1724414063	10.5476660156	0.3249056530	0.0127831722	0.0053263222
1557969619.046346	-5.1109716797	0.1389111328	10.4422851562	0.3270361819	0.0117179078	0.0063915861
1557969619.046353	-5.1061816406	0.1101708984	10.4183349609	0.3270361819	0.0095873799	0.0053263222
1557969619.046360	-5.1157617187	0.1484912109	10.4997656250	0.3270361819	0.0106526444	0.0042610575
1557969619.046366	-5.1061816406	0.1916015625	10.4758154297	0.3259709174	0.0095873799	0.0053263222
1557969619.046372	-5.1205517578	0.1772314453	10.4135449219	0.3270361819	0.0117179078	0.0053263222
1557969619.046386	-5.1157617187	0.1772314453	10.4279150391	0.3270361819	0.0149137011	0.0042610575
1557969619.046392	-5.1061816406	0.1676513672	10.4710253906	0.3270361819	0.0159789655	0.0042610575
1557969619.046398	-5.1013916016	0.1772314453	10.5141357422	0.3270361819	0.0149137011	0.0053263222
1557969619.046405	-5.1013916016	0.1868115234	10.4901855469	0.3270361819	0.0117179078	0.0063915861
1557969619.046411	-5.1109716797	0.1724414063	10.4758154297	0.3281014463	0.0106526444	0.0063915861
1557969619.090182	-5.1157617187	0.1437011719	10.4949755859	0.3281014463	0.0106526444	0.0063915861
1557969619.090217	-5.0870214844	0.1389111328	10.5045556641	0.3259709174	0.0117179078	0.0053263222
1557969619.090230	-5.0726513672	0.1916015625	10.4758154297	0.3270361819	0.0127831722	0.0053263222
1557969619.090241	-5.0343310547	0.1293310547	10.5141357422	0.3270361819	0.0106526444	0.0042610575
1557969619.090252	-5.0534912109	0.1724414063	10.4374951172	0.3259709174	0.0117179078	0.0042610575
1557969619.090264	-5.0534912109	0.1724414063	10.4806054688	0.3281014463	0.0106526444	0.0053263222
1557969619.090275	-5.0870214844	0.1868115234	10.4949755859	0.3249056530	0.0117179078	0.0063915861
1557969619.090287	-5.1013916016	0.1820214844	10.5093457031	0.3281014463	0.0117179078	0.0042610575
1557969619.090297	-5.0822314453	0.1484912109	10.5716162109	0.3270361819	0.0106526444	0.0042610575
1557969619.090303	-5.0439111328	0.1437011719	10.5572460938	0.3259709174	0.0117179078	0.0053263222
1557969619.090309	-5.0008007813	0.1532812500	10.5045556641	0.3249056530	0.0127831722	0.0063915861
1557969619.090316	-4.9864306641	0.1580712891	10.4758154297	0.3270361819	0.0138484366	0.0063915861
1557969619.090322	-5.0103808594	0.1676513672	10.4758154297	0.3281014463	0.0127831722	0.0053263222
1557969619.090328	-5.0487011719	0.2011816406	10.4758154297	0.3270361819	0.0127831722	0.0042610575
1557969619.090334	-5.0487011719	0.1820214844	10.4614453125	0.3259709174	0.0149137011	0.0042610575
1557969619.090340	-5.0534912109	0.1532812500	10.5093457031	0.3259709174	0.0149137011	0.0063915861
1557969619.090346	-5.0534912109	0.1628613281	10.5285058594	0.3249056530	0.0138484366	0.0063915861
1557969619.090354	-5.0726513672	0.1532812500	10.4518652344	0.3259709174	0.0127831722	0.0053263222
1557969619.134184	-5.1013916016	0.1484912109	10.4614453125	0.3270361819	0.0149137011	0.0053263222
1557969619.134221	-5.0630712891	0.1772314453	10.4518652344	0.3281014463	0.0127831722	0.0053263222
1557969619.134234	-5.0487011719	0.1868115234	10.4758154297	0.3270361819	0.0117179078	0.0053263222
1557969619.134246	-5.1013916016	0.1532812500	10.5332958984	0.3259709174	0.0138484366	0.0053263222
1557969619.134257	-5.0822314453	0.1389111328	10.4422851562	0.3259709174	0.0127831722	0.0053263222
1557969619.134269	-5.0726513672	0.2011816406	10.4997656250	0.3281014463	0.0127831722	0.0053263222
1557969619.134280	-5.0534912109	0.1341210938	10.4853955078	0.3259709174	0.0149137011	0.0063915861
1557969619.134291	-5.0774414063	0.1580712891	10.5572460938	0.3259709174	0.0149137011	0.0053263222
1557969619.134303	-5.0199609375	0.1341210938	10.4901855469	0.3249056530	0.0127831722	0.0063915861
1557969619.134314	-5.0822314453	0.2011816406	10.4710253906	0.3270361819	0.0138484366	0.0053263222
1557969619.134322	-5.0918115234	0.1772314453	10.4758154297	0.3270361819	0.0117179078	0.0053263222
1557969619.134329	-5.1013916016	0.1676513672	10.5237158203	0.3270361819	0.0106526444	0.0053263222
1557969619.134335	-5.1109716797	0.1532812500	10.5524560547	0.3270361819	0.0106526444	0.0042610575
1557969619.134341	-5.1061816406	0.1389111328	10.5476660156	0.3270361819	0.0149137011	0.0042610575
1557969619.134347	-5.0870214844	0.1484912109	10.5332958984	0.3259709174	0.0181094954	0.0063915861
1557969619.134353	-5.0870214844	0.1389111328	10.5093457031	0.3270361819	0.0170442299	0.0074568505
1557969619.134359	-5.0870214844	0.1197509766	10.4806054688	0.3281014463	0.0149137011	0.0063915861
1557969619.134365	-5.0918115234	0.1053808594	10.4279150391	0.3270361819	0.0127831722	0.0063915861
1557969619.134371	-5.0870214844	0.0910107422	10.4614453125	0.3270361819	0.0117179078	0.0063915861
1557969619.178252	-5.0487011719	0.1437011719	10.5380859375	0.3259709174	0.0117179078	0.0053263222
1557969619.178283	-5.1013916016	0.1676513672	10.4806054688	0.3281014463	0.0149137011	0.0053263222
1557969619.178293	-5.0534912109	0.1676513672	10.4758154297	0.3259709174	0.0117179078	0.0053263222
1557969619.178302	-5.1061816406	0.1963916016	10.4758154297	0.3270361819	0.0127831722	0.0053263222
1557969619.178308	-5.0870214844	0.1484912109	10.5668261719	0.3249056530	0.0138484366	0.0042610575
1557969619.178314	-5.0822314453	0.1437011719	10.4279150391	0.3249056530	0.0127831722	0.0053263222
1557969619.178321	-5.0918115234	0.1628613281	10.5428759766	0.3270361819	0.0138484366	0.0063915861
1557969619.178328	-5.0966015625	0.1532812500	10.5237158203	0.3259709174	0.0138484366	0.0053263222
1557969619.178335	-5.0678613281	0.1532812500	10.4710253906	0.3259709174	0.0138484366	0.0053263222
1557969619.178341	-5.0678613281	0.1580712891	10.4949755859	0.3270361819	0.0159789655	0.0063915861
1557969619.178347	-5.0822314453	0.1437011719	10.5141357422	0.3270361819	0.0149137011	0.0063915861
1557969619.178353	-5.0870214844	0.1341210938	10.4853955078	0.3270361819	0.0117179078	0.0063915861
1557969619.178359	-5.1013916016	0.1341210938	10.4566552734	0.3270361819	0.0106526444	0.0053263222
1557969619.178365	-5.1061816406	0.1389111328	10.4518652344	0.3270361819	0.0127831722	0.0053263222
1557969619.178371	-5.0918115234	0.1245410156	10.5189257813	0.3259709174	0.0149137011	0.0053263222
1557969619.178377	-5.0870214844	0.1389111328	10.5524560547	0.3270361819	0.0127831722	0.0053263222
1557969619.178383	-5.1157617187	0.1580712891	10.4997656250	0.3270361819	0.0117179078	0.0053263222
1557969619.178389	-5.1445019531	0.1341210938	10.4710253906	0.3259709174	0.0127831722	0.0053263222
1557969619.178395	-5.1397119141	0.1197509766	10.4710253906	0.3259709174	0.0138484366	0.0053263222
1557969619.182702	-5.1301318359	0.1532812500	10.5141357422	0.3249056530	0.0127831722	0.0042610575
1557969619.182715	-5.1061816406	0.1724414063	10.5716162109	0.3249056530	0.0106526444	0.0053263222
1557969619.182722	-5.1013916016	0.1484912109	10.5428759766	0.3249056530	0.0117179078	0.0063915861
1557969619.182728	-5.1013916016	0.1341210938	10.4662353516	0.3249056530	0.0127831722	0.0063915861
1557969619.182734	-5.1013916016	0.1341210938	10.4901855469	0.3238403886	0.0127831722	0.0053263222
1557969619.182741	-5.0774414063	0.1724414063	10.5237158203	0.3249056530	0.0117179078	0.0053263222
1557969619.182748	-5.0534912109	0.1916015625	10.5141357422	0.3259709174	0.0117179078	0.0053263222
1557969619.182754	-5.0918115234	0.1628613281	10.5045556641	0.3259709174	0.0117179078	0.0053263222
1557969619.182760	-5.1205517578	0.1484912109	10.5141357422	0.3259709174	0.0127831722	0.0053263222
1557969619.182766	-5.0966015625	0.1437011719	10.5332958984	0.3270361819	0.0138484366	0.0053263222
1557969619.192381	-5.1061816406	0.1389111328	10.5380859375	0.3270361819	0.0138484366	0.0053263222
1557969619.192401	-5.1253417969	0.1437011719	10.5716162109	0.3259709174	0.0127831722	0.0042610575
1557969619.192413	-5.1061816406	0.1245410156	10.5668261719	0.3259709174	0.0127831722	0.0042610575
1557969619.192420	-5.1061816406	0.1149609375	10.5524560547	0.3270361819	0.0138484366	0.0053263222
1557969619.192426	-5.1109716797	0.1293310547	10.5045556641	0.3270361819	0.0138484366	0.0053263222
1557969619.192432	-5.1013916016	0.1484912109	10.4279150391	0.3259709174	0.0127831722	0.0063915861
1557969619.192438	-5.0870214844	0.1389111328	10.4422851562	0.3259709174	0.0117179078	0.0063915861
1557969619.192443	-5.0678613281	0.1628613281	10.5045556641	0.3281014463	0.0117179078	0.0053263222
1557969619.192449	-5.0487011719	0.1963916016	10.5285058594	0.3270361819	0.0117179078	0.0042610575
1557969619.192456	-5.0678613281	0.1772314453	10.4901855469	0.3259709174	0.0138484366	0.0042610575
1557969619.204589	-5.0822314453	0.1724414063	10.4470751953	0.3270361819	0.0127831722	0.0053263222
1557969619.204610	-5.0630712891	0.1868115234	10.4470751953	0.3270361819	0.0117179078	0.0063915861
1557969619.204621	-5.0726513672	0.1580712891	10.4806054688	0.3281014463	0.0106526444	0.0063915861
1557969619.204637	-5.0870214844	0.1676513672	10.4853955078	0.3291667107	0.0106526444	0.0063915861
1557969619.204646	-5.0774414063	0.1868115234	10.4710253906	0.3291667107	0.0117179078	0.0053263222
1557969619.204656	-5.0582812500	0.1724414063	10.5045556641	0.3281014463	0.0127831722	0.0042610575
1557969619.204665	-5.0630712891	0.1245410156	10.5141357422	0.3259709174	0.0138484366	0.0053263222
1557969619.204674	-5.0822314453	0.0862207031	10.4949755859	0.3259709174	0.0138484366	0.0063915861
1557969619.204684	-5.1013916016	0.1197509766	10.4518652344	0.3270361819	0.0117179078	0.0063915861
1557969619.204693	-5.1205517578	0.1580712891	10.4327050781	0.3270361819	0.0117179078	0.0053263222
1557969619.213122	-5.0774414063	0.1580712891	10.5093457031	0.3270361819	0.0127831722	0.0063915861
1557969619.213142	-5.0439111328	0.1484912109	10.5668261719	0.3259709174	0.0138484366	0.0063915861
1557969619.213149	-5.0630712891	0.1484912109	10.5668261719	0.3270361819	0.0138484366	0.0063915861
1557969619.213155	-5.0918115234	0.1724414063	10.5476660156	0.3270361819	0.0117179078	0.0063915861
1557969619.213161	-5.0774414063	0.1916015625	10.5237158203	0.3259709174	0.0106526444	0.0053263222
1557969619.213167	-5.0534912109	0.1580712891	10.4758154297	0.3259709174	0.0127831722	0.0053263222
1557969619.213173	-5.0630712891	0.1341210938	10.4518652344	0.3249056530	0.0149137011	0.0042610575
1557969619.213179	-5.0774414063	0.1532812500	10.4758154297	0.3259709174	0.0138484366	0.0042610575
1557969619.213185	-5.0774414063	0.1341210938	10.4662353516	0.3249056530	0.0117179078	0.0042610575
1557969619.213191	-5.0726513672	0.1245410156	10.4566552734	0.3249056530	0.0127831722	0.0042610575
1557969619.223864	-5.0630712891	0.1484912109	10.4327050781	0.3259709174	0.0149137011	0.0053263222
1557969619.223883	-5.0630712891	0.1149609375	10.4710253906	0.3270361819	0.0170442299	0.0042610575
1557969619.223895	-5.0870214844	0.1005908203	10.5237158203	0.3259709174	0.0159789655	0.0031957930
1557969619.223907	-5.0870214844	0.1437011719	10.5093457031	0.3249056530	0.0127831722	0.0042610575
1557969619.223917	-5.0918115234	0.1437011719	10.4997656250	0.3238403886	0.0106526444	0.0053263222
1557969619.223924	-5.0870214844	0.1341210938	10.4997656250	0.3238403886	0.0117179078	0.0053263222
1557969619.223931	-5.0439111328	0.1389111328	10.4997656250	0.3249056530	0.0127831722	0.0053263222
1557969619.223937	-5.0534912109	0.1341210938	10.4614453125	0.3259709174	0.0149137011	0.0053263222
1557969619.223943	-5.1061816406	0.1341210938	10.4374951172	0.3249056530	0.0138484366	0.0042610575
1557969619.223949	-5.1061816406	0.1293310547	10.4758154297	0.3249056530	0.0127831722	0.0053263222
1557969619.232692	-5.0726513672	0.1149609375	10.4853955078	0.3238403886	0.0127831722	0.0063915861
1557969619.232713	-5.0678613281	0.1197509766	10.4662353516	0.3238403886	0.0127831722	0.0074568505
1557969619.232723	-5.0582812500	0.1389111328	10.4949755859	0.3249056530	0.0106526444	0.0063915861
1557969619.232733	-5.0391210938	0.1341210938	10.5285058594	0.3259709174	0.0117179078	0.0053263222
1557969619.232742	-5.0630712891	0.1341210938	10.5380859375	0.3259709174	0.0127831722	0.0063915861
1557969619.232752	-5.0630712891	0.1484912109	10.5237158203	0.3259709174	0.0127831722	0.0053263222
1557969619.232761	-5.0487011719	0.1628613281	10.5285058594	0.3259709174	0.0138484366	0.0053263222
1557969619.232770	-5.0391210938	0.1772314453	10.5572460938	0.3270361819	0.0149137011	0.0053263222
1557969619.232780	-5.0774414063	0.1580712891	10.5380859375	0.3259709174	0.0138484366	0.0063915861
1557969619.232789	-5.0822314453	0.1245410156	10.4997656250	0.3270361819	0.0138484366	0.0063915861
1557969619.243385	-5.0678613281	0.1293310547	10.4901855469	0.3270361819	0.0149137011	0.0063915861
1557969619.243403	-5.1061816406	0.1484912109	10.5237158203	0.3259709174	0.0149137011	0.0063915861
1557969619.243410	-5.0966015625	0.1580712891	10.5332958984	0.3238403886	0.0149137011	0.0063915861
1557969619.243416	-5.0630712891	0.1628613281	10.5045556641	0.3249056530	0.0149137011	0.0053263222
1557969619.243422	-5.0774414063	0.1628613281	10.5285058594	0.3259709174	0.0138484366	0.0053263222
1557969619.243434	-5.0870214844	0.1437011719	10.5141357422	0.3259709174	0.0117179078	0.0053263222
1557969619.243441	-5.0726513672	0.1484912109	10.5093457031	0.3270361819	0.0106526444	0.0063915861
1557969619.243447	-5.0822314453	0.1580712891	10.5668261719	0.3270361819	0.0127831722	0.0074568505
1557969619.243453	-5.0678613281	0.1437011719	10.5668261719	0.3270361819	0.0138484366	0.0063915861
1557969619.243459	-5.0678613281	0.1341210938	10.5045556641	0.3270361819	0.0138484366	0.0053263222
1557969619.252867	-5.0966015625	0.1580712891	10.4279150391	0.3270361819	0.0127831722	0.0053263222
1557969619.252878	-5.0918115234	0.1916015625	10.4279150391	0.3270361819	0.0127831722	0.0063915861
1557969619.252885	-5.0726513672	0.1484912109	10.4566552734	0.3270361819	0.0127831722	0.0074568505
1557969619.252891	-5.0630712891	0.1149609375	10.4710253906	0.3259709174	0.0138484366	0.0074568505
1557969619.252897	-5.0630712891	0.1484912109	10.5045556641	0.3270361819	0.0138484366	0.0063915861
1557969619.252903	-5.0391210938	0.1628613281	10.5189257813	0.3281014463	0.0149137011	0.0063915861
1557969619.252909	-5.0439111328	0.1389111328	10.5285058594	0.3281014463	0.0149137011	0.0063915861
1557969619.252915	-5.1013916016	0.1149609375	10.5237158203	0.3270361819	0.0117179078	0.0063915861
1557969619.252921	-5.0918115234	0.1197509766	10.4853955078	0.3259709174	0.0106526444	0.0063915861
1557969619.261288	-5.0630712891	0.1293310547	10.4806054688	0.3259709174	0.0117179078	0.0053263222
1557969619.261303	-5.0582812500	0.1628613281	10.4853955078	0.3259709174	0.0127831722	0.0053263222
1557969619.261310	-5.0534912109	0.1820214844	10.4518652344	0.3281014463	0.0117179078	0.0053263222
1557969619.261317	-5.0678613281	0.1628613281	10.4901855469	0.3302319752	0.0117179078	0.0053263222
1557969619.261323	-5.0582812500	0.1628613281	10.5141357422	0.3291667107	0.0117179078	0.0053263222
1557969619.261329	-5.0343310547	0.1437011719	10.4710253906	0.3270361819	0.0106526444	0.0063915861
1557969619.261335	-5.0391210938	0.1245410156	10.4279150391	0.3270361819	0.0117179078	0.0063915861
1557969619.261341	-5.0678613281	0.1293310547	10.4470751953	0.3270361819	0.0127831722	0.0063915861
1557969619.261347	-5.0774414063	0.1484912109	10.5093457031	0.3281014463	0.0138484366	0.0063915861
1557969619.261353	-5.0918115234	0.1628613281	10.5189257813	0.3281014463	0.0138484366	0.0053263222
1557969619.271918	-5.1109716797	0.1580712891	10.4710253906	0.3281014463	0.0117179078	0.0063915861
1557969619.271938	-5.0966015625	0.1484912109	10.4614453125	0.3270361819	0.0117179078	0.0074568505
1557969619.271945	-5.0870214844	0.1724414063	10.4901855469	0.3259709174	0.0106526444	0.0074568505
1557969619.271951	-5.0774414063	0.1772314453	10.4518652344	0.3249056530	0.0106526444	0.0074568505
1557969619.271957	-5.0678613281	0.1484912109	10.4374951172	0.3249056530	0.0106526444	0.0063915861
1557969619.271964	-5.0726513672	0.1484912109	10.4327050781	0.3259709174	0.0127831722	0.0063915861
1557969619.271970	-5.0582812500	0.1772314453	10.4614453125	0.3259709174	0.0127831722	0.0074568505
1557969619.271976	-5.0391210938	0.1724414063	10.5045556641	0.3249056530	0.0127831722	0.0074568505
1557969619.271982	-5.0582812500	0.1437011719	10.4758154297	0.3259709174	0.0117179078	0.0074568505
1557969619.271988	-5.0726513672	0.1532812500	10.4901855469	0.3281014463	0.0106526444	0.0063915861
1557969619.282446	-5.0678613281	0.1580712891	10.4853955078	0.3281014463	0.0117179078	0.0042610575
1557969619.282457	-5.0822314453	0.1532812500	10.4710253906	0.3270361819	0.0149137011	0.0031957930
1557969619.282464	-5.0870214844	0.1484912109	10.4806054688	0.3270361819	0.0159789655	0.0031957930
1557969619.282470	-5.0966015625	0.1628613281	10.4710253906	0.3270361819	0.0138484366	0.0042610575
1557969619.282478	-5.1013916016	0.1772314453	10.4470751953	0.3259709174	0.0127831722	0.0063915861
1557969619.282484	-5.0966015625	0.1820214844	10.4710253906	0.3270361819	0.0138484366	0.0053263222
1557969619.282490	-5.0918115234	0.1580712891	10.4853955078	0.3270361819	0.0127831722	0.0042610575
1557969619.282503	-5.0534912109	0.1532812500	10.4614453125	0.3270361819	0.0127831722	0.0053263222
1557969619.282509	-5.0343310547	0.1724414063	10.4901855469	0.3281014463	0.0117179078	0.0074568505
1557969619.282515	-5.0774414063	0.1532812500	10.4853955078	0.3281014463	0.0117179078	0.0074568505
1557969619.291960	-5.0966015625	0.1484912109	10.5476660156	0.3259709174	0.0127831722	0.0063915861
1557969619.291970	-5.0822314453	0.1868115234	10.5811962891	0.3249056530	0.0127831722	0.0063915861
1557969619.291977	-5.0822314453	0.1724414063	10.4997656250	0.3270361819	0.0127831722	0.0063915861
1557969619.291985	-5.0678613281	0.1484912109	10.5332958984	0.3281014463	0.0127831722	0.0063915861
1557969619.291991	-5.0487011719	0.1772314453	10.5955664063	0.3281014463	0.0127831722	0.0053263222
1557969619.291997	-5.0534912109	0.1820214844	10.5668261719	0.3281014463	0.0127831722	0.0042610575
1557969619.292003	-5.0774414063	0.1963916016	10.5189257813	0.3270361819	0.0117179078	0.0042610575
1557969619.292009	-5.0678613281	0.2059716797	10.4566552734	0.3270361819	0.0117179078	0.0042610575
1557969619.292015	-5.0439111328	0.1389111328	10.4135449219	0.3270361819	0.0127831722	0.0053263222
1557969619.292021	-5.0678613281	0.1245410156	10.4279150391	0.3259709174	0.0138484366	0.0042610575
1557969619.302516	-5.0630712891	0.1532812500	10.4614453125	0.3249056530	0.0138484366	0.0042610575
1557969619.302527	-5.0439111328	0.1389111328	10.5237158203	0.3259709174	0.0117179078	0.0063915861
1557969619.302534	-5.0678613281	0.1293310547	10.5380859375	0.3270361819	0.0106526444	0.0063915861
1557969619.302541	-5.0726513672	0.1580712891	10.5141357422	0.3281014463	0.0117179078	0.0053263222
1557969619.302548	-5.0726513672	0.1963916016	10.5189257813	0.3270361819	0.0138484366	0.0053263222
1557969619.302554	-5.0870214844	0.1724414063	10.5811962891	0.3270361819	0.0149137011	0.0053263222
1557969619.302560	-5.1109716797	0.1532812500	10.5620361328	0.3270361819	0.0138484366	0.0053263222
1557969619.302566	-5.1253417969	0.1484912109	10.4710253906	0.3259709174	0.0117179078	0.0053263222
1557969619.302572	-5.1109716797	0.1532812500	10.4710253906	0.3259709174	0.0117179078	0.0053263222
1557969619.302578	-5.0870214844	0.1868115234	10.4949755859	0.3259709174	0.0117179078	0.0053263222
1557969619.312135	-5.0774414063	0.1724414063	10.4901855469	0.3259709174	0.0138484366	0.0053263222
1557969619.312147	-5.0822314453	0.1484912109	10.4806054688	0.3270361819	0.0138484366	0.0053263222
1557969619.312153	-5.0726513672	0.1389111328	10.4997656250	0.3259709174	0.0138484366	0.0053263222
1557969619.312159	-5.0630712891	0.1389111328	10.5189257813	0.3249056530	0.0138484366	0.0053263222
1557969619.312166	-5.0726513672	0.1341210938	10.5524560547	0.3249056530	0.0127831722	0.0042610575
1557969619.312172	-5.0726513672	0.1341210938	10.5764062500	0.3259709174	0.0117179078	0.0053263222
1557969619.312178	-5.0534912109	0.1484912109	10.5380859375	0.3270361819	0.0127831722	0.0053263222
1557969619.312184	-5.0343310547	0.1580712891	10.5045556641	0.3270361819	0.0138484366	0.0042610575
1557969619.312190	-5.0151708984	0.1676513672	10.4949755859	0.3259709174	0.0138484366	0.0042610575
1557969619.312196	-5.0343310547	0.1724414063	10.4997656250	0.3259709174	0.0117179078	0.0042610575
1557969619.321646	-5.0678613281	0.1580712891	10.5524560547	0.3259709174	0.0127831722	0.0042610575
1557969619.321658	-5.0582812500	0.1484912109	10.5476660156	0.3249056530	0.0138484366	0.0042610575
1557969619.321666	-5.0534912109	0.1532812500	10.4901855469	0.3259709174	0.0117179078	0.0042610575
1557969619.321674	-5.0726513672	0.1724414063	10.5045556641	0.3281014463	0.0106526444	0.0053263222
1557969619.321680	-5.0726513672	0.1868115234	10.5476660156	0.3291667107	0.0127831722	0.0053263222
1557969619.321686	-5.0487011719	0.1724414063	10.5476660156	0.3270361819	0.0138484366	0.0053263222
1557969619.321693	-5.0439111328	0.1676513672	10.5332958984	0.3259709174	0.0117179078	0.0063915861
1557969619.321699	-5.0918115234	0.1868115234	10.4997656250	0.3249056530	0.0085221150	0.0053263222
1557969619.321705	-5.0966015625	0.1820214844	10.4327050781	0.3249056530	0.0085221150	0.0042610575
1557969619.321714	-5.0726513672	0.1437011719	10.4183349609	0.3249056530	0.0106526444	0.0053263222
1557969619.331353	-5.0630712891	0.1532812500	10.4566552734	0.3249056530	0.0117179078	0.0063915861
1557969619.331375	-5.0822314453	0.1820214844	10.4566552734	0.3238403886	0.0117179078	0.0063915861
1557969619.331382	-5.0870214844	0.1868115234	10.4374951172	0.3249056530	0.0127831722	0.0053263222
1557969619.331388	-5.0534912109	0.1963916016	10.4949755859	0.3249056530	0.0138484366	0.0063915861
1557969619.331394	-5.0534912109	0.1963916016	10.5524560547	0.3259709174	0.0149137011	0.0063915861
1557969619.331400	-5.0391210938	0.1772314453	10.5285058594	0.3259709174	0.0138484366	0.0053263222
1557969619.331406	-5.0391210938	0.1389111328	10.4662353516	0.3259709174	0.0138484366	0.0053263222
1557969619.331412	-5.0439111328	0.1532812500	10.4279150391	0.3259709174	0.0138484366	0.0063915861
1557969619.331418	-5.0534912109	0.1676513672	10.4374951172	0.3270361819	0.0127831722	0.0063915861
1557969619.331424	-5.0630712891	0.1293310547	10.4758154297	0.3270361819	0.0117179078	0.0063915861
1557969619.342304	-5.0630712891	0.1101708984	10.4806054688	0.3270361819	0.0127831722	0.0074568505
1557969619.342320	-5.0966015625	0.1341210938	10.4662353516	0.3270361819	0.0127831722	0.0074568505
1557969619.342327	-5.1061816406	0.1676513672	10.4949755859	0.3259709174	0.0127831722	0.0053263222
1557969619.342333	-5.1061816406	0.1724414063	10.5045556641	0.3270361819	0.0117179078	0.0042610575
1557969619.342339	-5.1157617187	0.1437011719	10.4806054688	0.3281014463	0.0117179078	0.0042610575
1557969619.342345	-5.1013916016	0.1245410156	10.4758154297	0.3281014463	0.0117179078	0.0053263222
1557969619.342351	-5.0966015625	0.1484912109	10.5141357422	0.3270361819	0.0127831722	0.0063915861
1557969619.342357	-5.0822314453	0.1724414063	10.5332958984	0.3249056530	0.0138484366	0.0063915861
1557969619.342363	-5.0678613281	0.1484912109	10.5332958984	0.3249056530	0.0138484366	0.0042610575
1557969619.342369	-5.0582812500	0.1245410156	10.4853955078	0.3259709174	0.0117179078	0.0031957930
1557969619.353339	-5.0582812500	0.1437011719	10.4231250000	0.3270361819	0.0117179078	0.0031957930
1557969619.353374	-5.0726513672	0.1916015625	10.4374951172	0.3270361819	0.0127831722	0.0053263222
1557969619.353385	-5.0966015625	0.1868115234	10.4710253906	0.3281014463	0.0138484366	0.0063915861
1557969619.353392	-5.0966015625	0.1341210938	10.5428759766	0.3281014463	0.0138484366	0.0063915861
1557969619.353398	-5.0343310547	0.1245410156	10.5476660156	0.3291667107	0.0149137011	0.0053263222
1557969619.353404	-5.0391210938	0.1389111328	10.4614453125	0.3291667107	0.0149137011	0.0042610575
1557969619.353410	-5.0870214844	0.1484912109	10.4518652344	0.3281014463	0.0138484366	0.0042610575
1557969619.353416	-5.0774414063	0.1532812500	10.5093457031	0.3270361819	0.0127831722	0.0042610575
1557969619.353422	-5.0726513672	0.1628613281	10.5524560547	0.3270361819	0.0117179078	0.0042610575
1557969619.353428	-5.1109716797	0.1676513672	10.5045556641	0.3270361819	0.0127831722	0.0031957930
1557969619.361084	-5.1253417969	0.1580712891	10.4470751953	0.3270361819	0.0138484366	0.0042610575
1557969619.361103	-5.1061816406	0.1628613281	10.4518652344	0.3281014463	0.0149137011	0.0053263222
1557969619.361115	-5.0774414063	0.1532812500	10.4758154297	0.3281014463	0.0149137011	0.0063915861
1557969619.361122	-5.0534912109	0.1484912109	10.4566552734	0.3281014463	0.0117179078	0.0063915861
1557969619.361128	-5.0678613281	0.1628613281	10.4710253906	0.3270361819	0.0106526444	0.0063915861
1557969619.361134	-5.0870214844	0.1341210938	10.5189257813	0.3270361819	0.0117179078	0.0063915861
1557969619.361140	-5.0918115234	0.1437011719	10.5285058594	0.3259709174	0.0127831722	0.0042610575
1557969619.361146	-5.0966015625	0.1676513672	10.4949755859	0.3259709174	0.0138484366	0.0042610575
1557969619.361152	-5.0870214844	0.1580712891	10.4806054688	0.3259709174	0.0138484366	0.0042610575
1557969619.361158	-5.0726513672	0.1628613281	10.4758154297	0.3259709174	0.0117179078	0.0053263222
1557969619.373222	-5.0391210938	0.1820214844	10.4566552734	0.3249056530	0.0117179078	0.0063915861
1557969619.373250	-5.0678613281	0.1676513672	10.4901855469	0.3238403886	0.0127831722	0.0053263222
1557969619.373261	-5.1157617187	0.1437011719	10.5189257813	0.3238403886	0.0127831722	0.0053263222
1557969619.373272	-5.1157617187	0.1437011719	10.5332958984	0.3249056530	0.0138484366	0.0042610575
1557969619.373280	-5.1157617187	0.1245410156	10.5237158203	0.3259709174	0.0127831722	0.0053263222
1557969619.373286	-5.0966015625	0.1101708984	10.5093457031	0.3259709174	0.0117179078	0.0063915861
1557969619.373292	-5.0678613281	0.1149609375	10.5093457031	0.3249056530	0.0117179078	0.0053263222
1557969619.373298	-5.0774414063	0.1245410156	10.4758154297	0.3249056530	0.0127831722	0.0042610575
1557969619.373304	-5.0582812500	0.1532812500	10.4853955078	0.3249056530	0.0127831722	0.0053263222
1557969619.373310	-5.0439111328	0.1868115234	10.4853955078	0.3249056530	0.0127831722	0.0074568505
1557969619.382109	-5.0774414063	0.1628613281	10.4901855469	0.3249056530	0.0117179078	0.0074568505
1557969619.382126	-5.0870214844	0.1197509766	10.4806054688	0.3259709174	0.0117179078	0.0053263222
1557969619.382138	-5.0582812500	0.1197509766	10.4231250000	0.3259709174	0.0138484366	0.0042610575
1557969619.382144	-5.0534912109	0.1389111328	10.4518652344	0.3249056530	0.0117179078	0.0042610575
1557969619.382150	-5.0774414063	0.1341210938	10.4997656250	0.3259709174	0.0085221150	0.0053263222
1557969619.382156	-5.0918115234	0.1197509766	10.5045556641	0.3259709174	0.0085221150	0.0053263222
1557969619.382162	-5.0870214844	0.1101708984	10.4853955078	0.3281014463	0.0106526444	0.0053263222
1557969619.382168	-5.0822314453	0.1293310547	10.4614453125	0.3281014463	0.0117179078	0.0053263222
1557969619.382174	-5.0678613281	0.1484912109	10.4327050781	0.3259709174	0.0127831722	0.0042610575
1557969619.382180	-5.0966015625	0.1389111328	10.4614453125	0.3249056530	0.0127831722	0.0042610575
1557969619.392157	-5.1109716797	0.1389111328	10.4853955078	0.3249056530	0.0117179078	0.0042610575
1557969619.392169	-5.0726513672	0.1676513672	10.4662353516	0.3259709174	0.0106526444	0.0053263222
1557969619.392176	-5.0582812500	0.1484912109	10.4806054688	0.3259709174	0.0106526444	0.0053263222
1557969619.392182	-5.0774414063	0.1197509766	10.4758154297	0.3259709174	0.0106526444	0.0053263222
1557969619.392188	-5.1061816406	0.1484912109	10.4949755859	0.3249056530	0.0117179078	0.0042610575
1557969619.392194	-5.0870214844	0.1437011719	10.5285058594	0.3249056530	0.0117179078	0.0042610575
1557969619.392200	-5.0678613281	0.1053808594	10.5428759766	0.3238403886	0.0117179078	0.0042610575
1557969619.392206	-5.0774414063	0.1005908203	10.5237158203	0.3238403886	0.0117179078	0.0042610575
1557969619.392212	-5.0534912109	0.1053808594	10.4853955078	0.3249056530	0.0106526444	0.0042610575
1557969619.392218	-5.0439111328	0.1005908203	10.4758154297	0.3259709174	0.0095873799	0.0063915861
1557969619.403646	-5.0439111328	0.0958007813	10.4470751953	0.3270361819	0.0106526444	0.0063915861
1557969619.403669	-5.0439111328	0.0862207031	10.4566552734	0.3270361819	0.0117179078	0.0053263222
1557969619.403676	-5.0391210938	0.1053808594	10.5045556641	0.3281014463	0.0117179078	0.0042610575
1557969619.403682	-5.0487011719	0.1389111328	10.5141357422	0.3270361819	0.0106526444	0.0053263222
1557969619.403688	-5.0822314453	0.1532812500	10.5093457031	0.3281014463	0.0117179078	0.0074568505
1557969619.403694	-5.0966015625	0.1724414063	10.4949755859	0.3281014463	0.0117179078	0.0074568505
1557969619.403700	-5.1109716797	0.1532812500	10.4470751953	0.3270361819	0.0117179078	0.0074568505
1557969619.403706	-5.1109716797	0.1389111328	10.4710253906	0.3270361819	0.0127831722	0.0063915861
1557969619.403712	-5.0774414063	0.1293310547	10.5764062500	0.3259709174	0.0138484366	0.0053263222
1557969619.403718	-5.1013916016	0.1005908203	10.5907763672	0.3259709174	0.0149137011	0.0063915861
1557969619.411376	-5.1253417969	0.0910107422	10.5237158203	0.3259709174	0.0138484366	0.0063915861
1557969619.411390	-5.0966015625	0.1005908203	10.5428759766	0.3249056530	0.0127831722	0.0053263222
1557969619.411399	-5.0822314453	0.1389111328	10.5620361328	0.3259709174	0.0127831722	0.0053263222
1557969619.411408	-5.0774414063	0.1389111328	10.5237158203	0.3270361819	0.0138484366	0.0063915861
1557969619.411414	-5.0678613281	0.1101708984	10.4997656250	0.3281014463	0.0149137011	0.0063915861
1557969619.411420	-5.0870214844	0.1005908203	10.4949755859	0.3259709174	0.0159789655	0.0063915861
1557969619.411426	-5.1013916016	0.1341210938	10.4997656250	0.3249056530	0.0138484366	0.0053263222
1557969619.411433	-5.0582812500	0.1484912109	10.5141357422	0.3249056530	0.0117179078	0.0063915861
1557969619.411439	-5.0487011719	0.1389111328	10.5476660156	0.3249056530	0.0117179078	0.0074568505
1557969619.411444	-5.0774414063	0.1389111328	10.5380859375	0.3259709174	0.0117179078	0.0074568505
1557969619.422125	-5.0774414063	0.1484912109	10.5141357422	0.3281014463	0.0117179078	0.0074568505
1557969619.422155	-5.0678613281	0.1676513672	10.4997656250	0.3291667107	0.0117179078	0.0063915861
1557969619.422163	-5.0774414063	0.1628613281	10.4806054688	0.3291667107	0.0127831722	0.0053263222
1557969619.422169	-5.0822314453	0.1532812500	10.4853955078	0.3281014463	0.0138484366	0.0074568505
1557969619.422175	-5.1013916016	0.1532812500	10.5141357422	0.3270361819	0.0138484366	0.0074568505
1557969619.422181	-5.1013916016	0.1389111328	10.4997656250	0.3281014463	0.0127831722	0.0074568505
1557969619.422187	-5.0870214844	0.1245410156	10.4470751953	0.3281014463	0.0106526444	0.0063915861
1557969619.422193	-5.0774414063	0.1293310547	10.4662353516	0.3259709174	0.0106526444	0.0063915861
1557969619.422199	-5.0295410156	0.1437011719	10.5093457031	0.3259709174	0.0127831722	0.0063915861
1557969619.422205	-5.0199609375	0.1341210938	10.5189257813	0.3259709174	0.0149137011	0.0053263222
1557969619.431552	-5.0295410156	0.1341210938	10.4758154297	0.3259709174	0.0138484366	0.0053263222
1557969619.431571	-5.0487011719	0.1532812500	10.4710253906	0.3270361819	0.0117179078	0.0053263222
1557969619.431584	-5.0582812500	0.1580712891	10.5093457031	0.3281014463	0.0106526444	0.0053263222
1557969619.431592	-5.0726513672	0.1437011719	10.5141357422	0.3291667107	0.0106526444	0.0053263222
1557969619.431599	-5.1013916016	0.1437011719	10.4949755859	0.3281014463	0.0117179078	0.0053263222
1557969619.431605	-5.1109716797	0.1676513672	10.4183349609	0.3259709174	0.0127831722	0.0063915861
1557969619.431611	-5.1205517578	0.1772314453	10.4087548828	0.3249056530	0.0117179078	0.0074568505
1557969619.431617	-5.0870214844	0.1724414063	10.4422851562	0.3259709174	0.0106526444	0.0063915861
1557969619.431623	-5.0439111328	0.1820214844	10.4279150391	0.3281014463	0.0095873799	0.0042610575
1557969619.431629	-5.0487011719	0.1916015625	10.4422851562	0.3281014463	0.0106526444	0.0053263222
1557969619.442250	-5.0822314453	0.1772314453	10.4614453125	0.3270361819	0.0117179078	0.0063915861
1557969619.442275	-5.0678613281	0.1484912109	10.4710253906	0.3281014463	0.0127831722	0.0063915861
1557969619.442288	-5.0391210938	0.1437011719	10.5332958984	0.3291667107	0.0138484366	0.0074568505
1557969619.442298	-5.0582812500	0.1532812500	10.5668261719	0.3291667107	0.0117179078	0.0074568505
1557969619.442304	-5.0726513672	0.1437011719	10.5141357422	0.3281014463	0.0117179078	0.0063915861
1557969619.442310	-5.1013916016	0.1628613281	10.4949755859	0.3270361819	0.0127831722	0.0074568505
1557969619.442316	-5.1301318359	0.1772314453	10.5237158203	0.3270361819	0.0138484366	0.0074568505
1557969619.442322	-5.1013916016	0.1532812500	10.5093457031	0.3270361819	0.0127831722	0.0063915861
1557969619.442328	-5.0487011719	0.1389111328	10.5141357422	0.3270361819	0.0117179078	0.0063915861
1557969619.442334	-5.0439111328	0.1293310547	10.5428759766	0.3270361819	0.0138484366	0.0063915861
1557969619.452869	-5.0630712891	0.1389111328	10.5285058594	0.3281014463	0.0149137011	0.0053263222
1557969619.452889	-5.0630712891	0.1580712891	10.4901855469	0.3270361819	0.0149137011	0.0053263222
1557969619.452901	-5.0726513672	0.1580712891	10.5141357422	0.3270361819	0.0149137011	0.0063915861
1557969619.452908	-5.0678613281	0.1484912109	10.5141357422	0.3270361819	0.0159789655	0.0063915861
1557969619.452914	-5.0534912109	0.1293310547	10.4853955078	0.3270361819	0.0149137011	0.0053263222
1557969619.452923	-5.0678613281	0.1245410156	10.4374951172	0.3270361819	0.0127831722	0.0063915861
1557969619.452929	-5.0487011719	0.1389111328	10.4135449219	0.3270361819	0.0117179078	0.0053263222
1557969619.452935	-5.0247509766	0.1580712891	10.4422851562	0.3270361819	0.0117179078	0.0063915861
1557969619.452942	-5.0534912109	0.1484912109	10.4566552734	0.3270361819	0.0106526444	0.0063915861
1557969619.452948	-5.0582812500	0.1101708984	10.4806054688	0.3270361819	0.0117179078	0.0053263222
1557969619.462342	-5.0726513672	0.1101708984	10.4758154297	0.3270361819	0.0127831722	0.0042610575
1557969619.462360	-5.0966015625	0.1149609375	10.4279150391	0.3259709174	0.0138484366	0.0042610575
1557969619.462370	-5.0630712891	0.1437011719	10.4518652344	0.3259709174	0.0138484366	0.0053263222
1557969619.462381	-5.0774414063	0.1820214844	10.5237158203	0.3259709174	0.0138484366	0.0063915861
1557969619.462390	-5.0822314453	0.1532812500	10.5285058594	0.3270361819	0.0149137011	0.0063915861
1557969619.462400	-5.0630712891	0.1293310547	10.4662353516	0.3281014463	0.0159789655	0.0063915861
1557969619.462410	-5.0487011719	0.1484912109	10.4327050781	0.3281014463	0.0159789655	0.0063915861
1557969619.462420	-5.0343310547	0.1437011719	10.4758154297	0.3270361819	0.0138484366	0.0063915861
1557969619.462429	-5.0295410156	0.1341210938	10.4853955078	0.3259709174	0.0127831722	0.0063915861
1557969619.462438	-5.0343310547	0.1676513672	10.5189257813	0.3270361819	0.0138484366	0.0063915861
1557969619.472025	-5.0439111328	0.1916015625	10.5620361328	0.3270361819	0.0138484366	0.0063915861
1557969619.472051	-5.0343310547	0.1628613281	10.5141357422	0.3281014463	0.0138484366	0.0053263222
1557969619.472057	-5.0343310547	0.1532812500	10.5141357422	0.3291667107	0.0138484366	0.0042610575
1557969619.472063	-5.0582812500	0.1676513672	10.5332958984	0.3302319752	0.0149137011	0.0042610575
1557969619.472069	-5.0678613281	0.1628613281	10.4710253906	0.3302319752	0.0138484366	0.0053263222
1557969619.472075	-5.0678613281	0.1532812500	10.4566552734	0.3291667107	0.0127831722	0.0063915861
1557969619.472081	-5.1013916016	0.1580712891	10.4901855469	0.3270361819	0.0127831722	0.0053263222
1557969619.472087	-5.1301318359	0.1389111328	10.5476660156	0.3270361819	0.0149137011	0.0042610575
1557969619.472093	-5.1061816406	0.1293310547	10.5811962891	0.3270361819	0.0159789655	0.0053263222
1557969619.472099	-5.0822314453	0.1580712891	10.5045556641	0.3270361819	0.0149137011	0.0053263222
1557969619.482645	-5.0726513672	0.1868115234	10.4901855469	0.3281014463	0.0127831722	0.0042610575
1557969619.482657	-5.1013916016	0.1820214844	10.5380859375	0.3291667107	0.0117179078	0.0042610575
1557969619.482665	-5.1253417969	0.2011816406	10.5285058594	0.3291667107	0.0117179078	0.0053263222
1557969619.482671	-5.0918115234	0.2299218750	10.4997656250	0.3302319752	0.0106526444	0.0053263222
1557969619.482677	-5.0487011719	0.2155517578	10.4997656250	0.3281014463	0.0106526444	0.0042610575
1557969619.482683	-5.0487011719	0.1916015625	10.5285058594	0.3270361819	0.0127831722	0.0031957930
1557969619.482689	-5.0487011719	0.1868115234	10.5237158203	0.3281014463	0.0117179078	0.0031957930
1557969619.482696	-5.0391210938	0.2107617188	10.4662353516	0.3302319752	0.0106526444	0.0053263222
1557969619.482702	-5.0487011719	0.2107617188	10.4518652344	0.3302319752	0.0117179078	0.0063915861
1557969619.482708	-5.0678613281	0.2155517578	10.4231250000	0.3291667107	0.0127831722	0.0053263222
1557969619.492159	-5.0822314453	0.2442919922	10.4949755859	0.3291667107	0.0127831722	0.0042610575
1557969619.492172	-5.1013916016	0.2730322266	10.5476660156	0.3281014463	0.0106526444	0.0042610575
1557969619.492179	-5.1109716797	0.2730322266	10.5045556641	0.3281014463	0.0106526444	0.0053263222
1557969619.492186	-5.0918115234	0.2442919922	10.4614453125	0.3270361819	0.0106526444	0.0053263222
1557969619.492192	-5.0918115234	0.2299218750	10.4183349609	0.3270361819	0.0117179078	0.0053263222
1557969619.492198	-5.0870214844	0.2107617188	10.4614453125	0.3259709174	0.0127831722	0.0031957930
1557969619.492208	-5.1061816406	0.1916015625	10.5093457031	0.3259709174	0.0138484366	0.0021305287
1557969619.492214	-5.1253417969	0.1868115234	10.5141357422	0.3259709174	0.0149137011	0.0031957930
1557969619.492220	-5.1349218750	0.2203417969	10.4806054688	0.3259709174	0.0149137011	0.0042610575
1557969619.492226	-5.1109716797	0.2155517578	10.4662353516	0.3270361819	0.0127831722	0.0042610575
1557969619.501990	-5.0726513672	0.2011816406	10.5045556641	0.3270361819	0.0127831722	0.0042610575
1557969619.502014	-5.0822314453	0.1963916016	10.5285058594	0.3270361819	0.0127831722	0.0053263222
1557969619.502021	-5.0726513672	0.1868115234	10.5093457031	0.3259709174	0.0138484366	0.0063915861
1557969619.502027	-5.0918115234	0.2011816406	10.4997656250	0.3259709174	0.0127831722	0.0053263222
1557969619.502033	-5.1349218750	0.2203417969	10.5380859375	0.3249056530	0.0117179078	0.0053263222
1557969619.502039	-5.1157617187	0.2299218750	10.5141357422	0.3249056530	0.0106526444	0.0053263222
1557969619.502045	-5.1061816406	0.2155517578	10.4901855469	0.3249056530	0.0127831722	0.0053263222
1557969619.502050	-5.1349218750	0.2155517578	10.5141357422	0.3259709174	0.0138484366	0.0053263222
1557969619.502056	-5.1684521484	0.2203417969	10.4806054688	0.3259709174	0.0127831722	0.0053263222
1557969619.502062	-5.1205517578	0.1868115234	10.5189257813	0.3249056530	0.0127831722	0.0053263222
1557969619.513041	-5.0534912109	0.1820214844	10.5955664063	0.3249056530	0.0117179078	0.0063915861
1557969619.513052	-5.0678613281	0.1772314453	10.5668261719	0.3259709174	0.0106526444	0.0063915861
1557969619.513059	-5.0678613281	0.1820214844	10.5045556641	0.3259709174	0.0106526444	0.0063915861
1557969619.513065	-5.0582812500	0.1868115234	10.4949755859	0.3238403886	0.0117179078	0.0074568505
1557969619.513071	-5.0582812500	0.1724414063	10.4901855469	0.3227751241	0.0106526444	0.0063915861
1557969619.513077	-5.0726513672	0.1772314453	10.4614453125	0.3227751241	0.0106526444	0.0063915861
1557969619.513083	-5.0966015625	0.1676513672	10.4327050781	0.3238403886	0.0106526444	0.0053263222
1557969619.513089	-5.1013916016	0.1532812500	10.4662353516	0.3238403886	0.0106526444	0.0053263222
1557969619.513095	-5.0678613281	0.1580712891	10.4997656250	0.3227751241	0.0117179078	0.0053263222
1557969619.513101	-5.0439111328	0.1676513672	10.5093457031	0.3217098597	0.0117179078	0.0053263222
1557969619.521810	-5.0678613281	0.1772314453	10.4949755859	0.3206445952	0.0127831722	0.0053263222
1557969619.521820	-5.1013916016	0.1628613281	10.4758154297	0.3195793308	0.0138484366	0.0053263222
1557969619.521827	-5.1109716797	0.1484912109	10.4518652344	0.3195793308	0.0138484366	0.0053263222
1557969619.521833	-5.1013916016	0.1484912109	10.4327050781	0.3217098597	0.0138484366	0.0053263222
1557969619.521839	-5.1205517578	0.1245410156	10.4422851562	0.3227751241	0.0138484366	0.0042610575
1557969619.521845	-5.1013916016	0.1293310547	10.4662353516	0.3217098597	0.0159789655	0.0042610575
1557969619.521851	-5.0630712891	0.1484912109	10.5237158203	0.3227751241	0.0149137011	0.0031957930
1557969619.521857	-5.0726513672	0.1389111328	10.5237158203	0.3227751241	0.0117179078	0.0031957930
1557969619.521863	-5.0822314453	0.1532812500	10.5237158203	0.3238403886	0.0095873799	0.0042610575
1557969619.521869	-5.0918115234	0.1628613281	10.5285058594	0.3249056530	0.0106526444	0.0042610575
1557969619.531894	-5.0966015625	0.1484912109	10.5045556641	0.3259709174	0.0106526444	0.0053263222
1557969619.531906	-5.1013916016	0.1484912109	10.5380859375	0.3270361819	0.0106526444	0.0053263222
1557969619.531913	-5.1157617187	0.1437011719	10.5524560547	0.3259709174	0.0106526444	0.0042610575
1557969619.531919	-5.1157617187	0.1389111328	10.5332958984	0.3249056530	0.0106526444	0.0042610575
1557969619.531925	-5.0870214844	0.1484912109	10.5237158203	0.3249056530	0.0106526444	0.0042610575
1557969619.531931	-5.0726513672	0.1197509766	10.4949755859	0.3259709174	0.0117179078	0.0042610575
1557969619.531937	-5.0487011719	0.1005908203	10.5093457031	0.3259709174	0.0127831722	0.0053263222
1557969619.531944	-5.0439111328	0.1005908203	10.4806054688	0.3259709174	0.0117179078	0.0053263222
1557969619.531958	-5.0582812500	0.0958007813	10.4231250000	0.3281014463	0.0106526444	0.0053263222
1557969619.531964	-5.0582812500	0.1053808594	10.4758154297	0.3281014463	0.0106526444	0.0042610575
1557969619.542885	-5.0487011719	0.1197509766	10.4949755859	0.3270361819	0.0117179078	0.0053263222
1557969619.542907	-5.0247509766	0.1149609375	10.4662353516	0.3259709174	0.0127831722	0.0053263222
1557969619.542920	-5.0295410156	0.1341210938	10.4710253906	0.3249056530	0.0138484366	0.0053263222
1557969619.542933	-5.0391210938	0.1293310547	10.4758154297	0.3238403886	0.0138484366	0.0053263222
1557969619.542944	-5.0055908203	0.1101708984	10.4566552734	0.3227751241	0.0117179078	0.0053263222
1557969619.542956	-4.9912207031	0.0862207031	10.4231250000	0.3227751241	0.0106526444	0.0042610575
1557969619.542966	-5.0151708984	0.0718505859	10.4422851562	0.3227751241	0.0117179078	0.0031957930
1557969619.542975	-5.0391210938	0.0766406250	10.5045556641	0.3227751241	0.0127831722	0.0042610575
1557969619.542984	-5.0343310547	0.0862207031	10.5141357422	0.3227751241	0.0127831722	0.0042610575
1557969619.542994	-5.0439111328	0.0766406250	10.4806054688	0.3249056530	0.0127831722	0.0063915861
1557969619.552500	-5.0534912109	0.0910107422	10.4710253906	0.3249056530	0.0138484366	0.0063915861
1557969619.552524	-5.0582812500	0.1197509766	10.4853955078	0.3238403886	0.0138484366	0.0053263222
1557969619.552531	-5.0678613281	0.1005908203	10.5045556641	0.3238403886	0.0138484366	0.0042610575
1557969619.552537	-5.0630712891	0.0670605469	10.4853955078	0.3238403886	0.0138484366	0.0042610575
1557969619.552543	-5.0678613281	0.0814306641	10.4853955078	0.3249056530	0.0117179078	0.0053263222
1557969619.552549	-5.0534912109	0.0910107422	10.5524560547	0.3249056530	0.0106526444	0.0063915861
1557969619.552555	-5.0343310547	0.0574804687	10.6051464844	0.3238403886	0.0106526444	0.0063915861
1557969619.552561	-5.0630712891	0.0766406250	10.5859863281	0.3259709174	0.0127831722	0.0063915861
1557969619.552567	-5.0678613281	0.1245410156	10.5285058594	0.3270361819	0.0149137011	0.0074568505
1557969619.552573	-5.0487011719	0.0958007813	10.4901855469	0.3270361819	0.0149137011	0.0074568505
1557969619.563064	-5.0439111328	0.0766406250	10.5141357422	0.3259709174	0.0138484366	0.0074568505
1557969619.563086	-5.0726513672	0.0910107422	10.5189257813	0.3259709174	0.0138484366	0.0074568505
1557969619.563097	-5.0870214844	0.1005908203	10.4806054688	0.3259709174	0.0138484366	0.0063915861
1557969619.563106	-5.0870214844	0.1101708984	10.5093457031	0.3259709174	0.0127831722	0.0053263222
1557969619.563116	-5.0870214844	0.1149609375	10.5524560547	0.3259709174	0.0117179078	0.0042610575
1557969619.563127	-5.0582812500	0.1005908203	10.5141357422	0.3270361819	0.0117179078	0.0053263222
1557969619.563136	-5.0391210938	0.0862207031	10.4806054688	0.3270361819	0.0127831722	0.0053263222
1557969619.563146	-5.0918115234	0.1005908203	10.4853955078	0.3270361819	0.0127831722	0.0053263222
1557969619.563157	-5.1109716797	0.1341210938	10.4997656250	0.3270361819	0.0127831722	0.0042610575
1557969619.563167	-5.0630712891	0.1389111328	10.5237158203	0.3291667107	0.0127831722	0.0042610575
1557969619.571953	-5.0678613281	0.1053808594	10.5380859375	0.3291667107	0.0138484366	0.0042610575
1557969619.571972	-5.0534912109	0.0862207031	10.5524560547	0.3281014463	0.0149137011	0.0042610575
1557969619.571979	-5.0295410156	0.0958007813	10.5332958984	0.3270361819	0.0138484366	0.0042610575
1557969619.571985	-5.0534912109	0.0958007813	10.4710253906	0.3259709174	0.0149137011	0.0053263222
1557969619.571991	-5.0534912109	0.0383203125	10.4327050781	0.3270361819	0.0138484366	0.0053263222
1557969619.571997	-5.0678613281	0.0047900391	10.4518652344	0.3291667107	0.0127831722	0.0053263222
1557969619.572003	-5.0918115234	0.0622705078	10.4901855469	0.3302319752	0.0127831722	0.0063915861
1557969619.572009	-5.0774414063	0.1005908203	10.5141357422	0.3302319752	0.0127831722	0.0074568505
1557969619.572015	-5.0678613281	0.0862207031	10.5045556641	0.3291667107	0.0138484366	0.0074568505
1557969619.572021	-5.0678613281	0.0814306641	10.5093457031	0.3291667107	0.0149137011	0.0063915861
1557969619.582525	-5.0487011719	0.1053808594	10.5093457031	0.3291667107	0.0159789655	0.0053263222
1557969619.582537	-5.0582812500	0.1149609375	10.4518652344	0.3291667107	0.0170442299	0.0053263222
1557969619.582545	-5.0822314453	0.0958007813	10.4422851562	0.3302319752	0.0159789655	0.0053263222
1557969619.582551	-5.0582812500	0.0910107422	10.4806054688	0.3291667107	0.0149137011	0.0063915861
1557969619.582557	-5.0295410156	0.0862207031	10.4901855469	0.3281014463	0.0149137011	0.0063915861
1557969619.582563	-5.0487011719	0.0910107422	10.4997656250	0.3281014463	0.0138484366	0.0063915861
1557969619.582570	-5.0774414063	0.1005908203	10.5620361328	0.3270361819	0.0138484366	0.0063915861
1557969619.582576	-5.1157617187	0.1197509766	10.5668261719	0.3281014463	0.0127831722	0.0063915861
1557969619.582582	-5.1205517578	0.1245410156	10.5093457031	0.3291667107	0.0117179078	0.0074568505
1557969619.582587	-5.0726513672	0.1293310547	10.4997656250	0.3312972396	0.0117179078	0.0074568505
1557969619.592075	-5.0726513672	0.1628613281	10.5045556641	0.3323625040	0.0138484366	0.0063915861
1557969619.592092	-5.1061816406	0.1820214844	10.5045556641	0.3312972396	0.0138484366	0.0063915861
1557969619.592099	-5.0918115234	0.1532812500	10.5093457031	0.3291667107	0.0117179078	0.0063915861
1557969619.592106	-5.0870214844	0.1149609375	10.5045556641	0.3281014463	0.0106526444	0.0053263222
1557969619.592112	-5.0966015625	0.1389111328	10.4853955078	0.3291667107	0.0127831722	0.0053263222
1557969619.592118	-5.0822314453	0.1820214844	10.4422851562	0.3291667107	0.0138484366	0.0063915861
1557969619.592124	-5.0678613281	0.1916015625	10.4087548828	0.3302319752	0.0127831722	0.0074568505
1557969619.592129	-5.0918115234	0.1724414063	10.4087548828	0.3312972396	0.0127831722	0.0074568505
1557969619.592136	-5.1157617187	0.1580712891	10.4518652344	0.3302319752	0.0127831722	0.0053263222
1557969619.592142	-5.1061816406	0.2011816406	10.4997656250	0.3291667107	0.0127831722	0.0063915861
1557969619.602952	-5.0774414063	0.1916015625	10.5093457031	0.3281014463	0.0127831722	0.0085221150
1557969619.602973	-5.0678613281	0.1484912109	10.4710253906	0.3270361819	0.0149137011	0.0074568505
1557969619.602980	-5.1013916016	0.1820214844	10.4710253906	0.3270361819	0.0170442299	0.0063915861
1557969619.602986	-5.1205517578	0.2107617188	10.4997656250	0.3281014463	0.0138484366	0.0063915861
1557969619.602992	-5.1205517578	0.2107617188	10.4949755859	0.3291667107	0.0117179078	0.0063915861
1557969619.602998	-5.0870214844	0.1916015625	10.5189257813	0.3291667107	0.0117179078	0.0063915861
1557969619.603004	-5.0726513672	0.1868115234	10.5524560547	0.3281014463	0.0117179078	0.0053263222
1557969619.603010	-5.1013916016	0.1724414063	10.5524560547	0.3281014463	0.0138484366	0.0053263222
1557969619.603016	-5.1205517578	0.1389111328	10.5524560547	0.3281014463	0.0159789655	0.0053263222
1557969619.603022	-5.1061816406	0.1532812500	10.5332958984	0.3281014463	0.0149137011	0.0063915861
1557969619.612825	-5.0918115234	0.1820214844	10.4853955078	0.3291667107	0.0149137011	0.0063915861
1557969619.612839	-5.0726513672	0.2107617188	10.4614453125	0.3291667107	0.0138484366	0.0063915861
1557969619.612845	-5.0726513672	0.2251318359	10.4662353516	0.3281014463	0.0138484366	0.0063915861
1557969619.612852	-5.0918115234	0.2059716797	10.4901855469	0.3281014463	0.0138484366	0.0063915861
1557969619.612858	-5.0966015625	0.1820214844	10.4997656250	0.3270361819	0.0127831722	0.0053263222
1557969619.612864	-5.1061816406	0.1963916016	10.5141357422	0.3270361819	0.0127831722	0.0063915861
1557969619.612871	-5.1109716797	0.2203417969	10.5093457031	0.3249056530	0.0138484366	0.0063915861
1557969619.612877	-5.1205517578	0.2059716797	10.4422851562	0.3249056530	0.0159789655	0.0074568505
1557969619.612883	-5.1109716797	0.1868115234	10.4614453125	0.3259709174	0.0159789655	0.0074568505
1557969619.612889	-5.0822314453	0.1916015625	10.4758154297	0.3270361819	0.0149137011	0.0063915861
1557969619.621636	-5.0918115234	0.2011816406	10.4566552734	0.3270361819	0.0138484366	0.0053263222
1557969619.621660	-5.0918115234	0.2203417969	10.4662353516	0.3270361819	0.0117179078	0.0053263222
1557969619.621679	-5.0822314453	0.2155517578	10.4949755859	0.3270361819	0.0106526444	0.0063915861
1557969619.621691	-5.0918115234	0.1820214844	10.5332958984	0.3270361819	0.0117179078	0.0074568505
1557969619.621702	-5.0822314453	0.1820214844	10.5237158203	0.3270361819	0.0127831722	0.0063915861
1557969619.621714	-5.0630712891	0.1916015625	10.5189257813	0.3270361819	0.0149137011	0.0063915861
1557969619.621725	-5.0966015625	0.1916015625	10.4806054688	0.3259709174	0.0149137011	0.0063915861
1557969619.621736	-5.1013916016	0.1916015625	10.4422851562	0.3259709174	0.0149137011	0.0063915861
1557969619.621747	-5.0726513672	0.2059716797	10.4758154297	0.3270361819	0.0149137011	0.0074568505
1557969619.621758	-5.0822314453	0.2059716797	10.5237158203	0.3281014463	0.0138484366	0.0063915861
1557969619.632464	-5.0774414063	0.2155517578	10.5093457031	0.3281014463	0.0127831722	0.0063915861
1557969619.632493	-5.0726513672	0.2299218750	10.4279150391	0.3281014463	0.0138484366	0.0053263222
1557969619.632501	-5.1061816406	0.1820214844	10.4087548828	0.3270361819	0.0138484366	0.0053263222
1557969619.632507	-5.1253417969	0.1772314453	10.4374951172	0.3270361819	0.0138484366	0.0063915861
1557969619.632513	-5.1253417969	0.1963916016	10.4806054688	0.3259709174	0.0138484366	0.0063915861
1557969619.632519	-5.1109716797	0.1820214844	10.5428759766	0.3259709174	0.0127831722	0.0063915861
1557969619.632525	-5.0918115234	0.2011816406	10.5093457031	0.3270361819	0.0127831722	0.0063915861
1557969619.632531	-5.0774414063	0.2059716797	10.4806054688	0.3270361819	0.0127831722	0.0053263222
1557969619.632536	-5.0678613281	0.1916015625	10.5141357422	0.3270361819	0.0127831722	0.0053263222
1557969619.632542	-5.0870214844	0.1772314453	10.5332958984	0.3259709174	0.0138484366	0.0053263222
1557969619.642256	-5.0822314453	0.1963916016	10.5620361328	0.3249056530	0.0127831722	0.0063915861
1557969619.642274	-5.0966015625	0.2059716797	10.5428759766	0.3249056530	0.0095873799	0.0053263222
1557969619.642286	-5.1205517578	0.1963916016	10.5237158203	0.3259709174	0.0106526444	0.0053263222
1557969619.642296	-5.0439111328	0.2011816406	10.5093457031	0.3270361819	0.0117179078	0.0053263222
1557969619.642302	-5.0103808594	0.2011816406	10.4758154297	0.3259709174	0.0127831722	0.0053263222
1557969619.642308	-5.0534912109	0.1868115234	10.4710253906	0.3238403886	0.0127831722	0.0063915861
1557969619.642314	-5.0534912109	0.1772314453	10.4662353516	0.3227751241	0.0149137011	0.0063915861
1557969619.642320	-5.0582812500	0.1724414063	10.4949755859	0.3238403886	0.0159789655	0.0053263222
1557969619.642326	-5.0534912109	0.1676513672	10.5093457031	0.3259709174	0.0149137011	0.0042610575
1557969619.642332	-5.0870214844	0.1772314453	10.4614453125	0.3259709174	0.0117179078	0.0031957930
1557969619.653161	-5.0918115234	0.1724414063	10.4662353516	0.3249056530	0.0095873799	0.0031957930
1557969619.653173	-5.0678613281	0.1628613281	10.4566552734	0.3238403886	0.0095873799	0.0031957930
1557969619.653180	-5.0774414063	0.1772314453	10.4135449219	0.3238403886	0.0117179078	0.0031957930
1557969619.653186	-5.0870214844	0.2107617188	10.4279150391	0.3249056530	0.0127831722	0.0031957930
1557969619.653192	-5.1253417969	0.1868115234	10.4518652344	0.3249056530	0.0127831722	0.0042610575
1557969619.653198	-5.1205517578	0.0910107422	10.4901855469	0.3249056530	0.0127831722	0.0042610575
1557969619.653204	-5.0822314453	0.0814306641	10.4853955078	0.3259709174	0.0127831722	0.0042610575
1557969619.653210	-5.0774414063	0.1389111328	10.4422851562	0.3249056530	0.0127831722	0.0031957930
1557969619.653216	-5.0822314453	0.1532812500	10.4853955078	0.3238403886	0.0117179078	0.0042610575
1557969619.653222	-5.0966015625	0.1532812500	10.5572460938	0.3238403886	0.0106526444	0.0053263222
1557969619.663084	-5.0918115234	0.1772314453	10.5572460938	0.3238403886	0.0106526444	0.0063915861
1557969619.663095	-5.0774414063	0.1963916016	10.5141357422	0.3249056530	0.0117179078	0.0063915861
1557969619.663102	-5.0487011719	0.1628613281	10.5237158203	0.3259709174	0.0127831722	0.0053263222
1557969619.663108	-5.0343310547	0.1532812500	10.5764062500	0.3238403886	0.0138484366	0.0042610575
1557969619.663122	-5.0391210938	0.1532812500	10.5620361328	0.3227751241	0.0149137011	0.0042610575
1557969619.663128	-5.0534912109	0.1341210938	10.4901855469	0.3238403886	0.0149137011	0.0042610575
1557969619.663135	-5.0966015625	0.1245410156	10.4997656250	0.3249056530	0.0138484366	0.0053263222
1557969619.663141	-5.0870214844	0.1437011719	10.5620361328	0.3238403886	0.0117179078	0.0053263222
1557969619.663147	-5.0295410156	0.1484912109	10.5524560547	0.3238403886	0.0106526444	0.0053263222
1557969619.663153	-5.0103808594	0.1101708984	10.5093457031	0.3238403886	0.0106526444	0.0053263222
1557969619.672898	-5.0439111328	0.0910107422	10.5093457031	0.3249056530	0.0106526444	0.0063915861
1557969619.672912	-5.0774414063	0.1005908203	10.5045556641	0.3249056530	0.0106526444	0.0063915861
1557969619.672919	-5.0487011719	0.1149609375	10.4997656250	0.3238403886	0.0117179078	0.0053263222
1557969619.672925	-5.0247509766	0.1197509766	10.5237158203	0.3249056530	0.0138484366	0.0063915861
1557969619.672932	-5.0534912109	0.1341210938	10.5332958984	0.3249056530	0.0138484366	0.0063915861
1557969619.672938	-5.0487011719	0.1628613281	10.4901855469	0.3227751241	0.0117179078	0.0053263222
1557969619.672944	-5.0582812500	0.1676513672	10.4518652344	0.3227751241	0.0106526444	0.0042610575
1557969619.672950	-5.1013916016	0.1532812500	10.4662353516	0.3227751241	0.0095873799	0.0053263222
1557969619.672956	-5.1013916016	0.1389111328	10.4710253906	0.3238403886	0.0117179078	0.0053263222
1557969619.672962	-5.0822314453	0.1101708984	10.4901855469	0.3259709174	0.0117179078	0.0042610575
1557969619.681601	-5.0582812500	0.0910107422	10.5237158203	0.3270361819	0.0117179078	0.0042610575
1557969619.681623	-5.0774414063	0.0958007813	10.5189257813	0.3270361819	0.0095873799	0.0042610575
1557969619.681631	-5.0918115234	0.1341210938	10.4901855469	0.3259709174	0.0095873799	0.0053263222
1557969619.681637	-5.0582812500	0.1580712891	10.4327050781	0.3249056530	0.0117179078	0.0063915861
1557969619.681643	-5.0487011719	0.1293310547	10.4087548828	0.3249056530	0.0117179078	0.0063915861
1557969619.681649	-5.0630712891	0.0958007813	10.4135449219	0.3249056530	0.0127831722	0.0053263222
1557969619.681655	-5.0487011719	0.0910107422	10.4087548828	0.3249056530	0.0127831722	0.0053263222
1557969619.681661	-5.0343310547	0.0958007813	10.4566552734	0.3238403886	0.0138484366	0.0053263222
1557969619.681667	-5.0870214844	0.0958007813	10.4758154297	0.3249056530	0.0138484366	0.0053263222
1557969619.681673	-5.1109716797	0.0574804687	10.4566552734	0.3249056530	0.0117179078	0.0063915861
1557969619.692367	-5.1061816406	0.0526904297	10.4710253906	0.3259709174	0.0127831722	0.0063915861
1557969619.692389	-5.0774414063	0.0958007813	10.4758154297	0.3281014463	0.0117179078	0.0063915861
1557969619.692402	-5.0534912109	0.1101708984	10.4806054688	0.3281014463	0.0117179078	0.0053263222
1557969619.692409	-5.0582812500	0.1293310547	10.4853955078	0.3270361819	0.0117179078	0.0053263222
1557969619.692415	-5.0630712891	0.1341210938	10.4710253906	0.3259709174	0.0106526444	0.0042610575
1557969619.692421	-5.0534912109	0.1053808594	10.4853955078	0.3259709174	0.0095873799	0.0042610575
1557969619.692427	-5.0439111328	0.0814306641	10.5045556641	0.3259709174	0.0095873799	0.0053263222
1557969619.692433	-5.0439111328	0.0766406250	10.4997656250	0.3259709174	0.0106526444	0.0053263222
1557969619.692439	-5.0534912109	0.0814306641	10.4997656250	0.3270361819	0.0127831722	0.0063915861
1557969619.692445	-5.0534912109	0.1101708984	10.5620361328	0.3291667107	0.0138484366	0.0063915861
1557969619.703293	-5.0439111328	0.1149609375	10.6147265625	0.3291667107	0.0149137011	0.0063915861
1557969619.703324	-5.0870214844	0.0910107422	10.5476660156	0.3281014463	0.0138484366	0.0063915861
1557969619.703336	-5.1157617187	0.0958007813	10.4853955078	0.3270361819	0.0127831722	0.0053263222
1557969619.703342	-5.0822314453	0.1245410156	10.5045556641	0.3270361819	0.0117179078	0.0042610575
1557969619.703349	-5.0822314453	0.1341210938	10.5141357422	0.3281014463	0.0106526444	0.0053263222
1557969619.703364	-5.0630712891	0.1149609375	10.5380859375	0.3270361819	0.0117179078	0.0053263222
1557969619.703370	-5.0247509766	0.1245410156	10.5764062500	0.3270361819	0.0127831722	0.0053263222
1557969619.703376	-5.0678613281	0.1628613281	10.5668261719	0.3259709174	0.0138484366	0.0053263222
1557969619.703382	-5.1157617187	0.1772314453	10.5764062500	0.3270361819	0.0127831722	0.0042610575
1557969619.703388	-5.1013916016	0.1724414063	10.5716162109	0.3270361819	0.0138484366	0.0042610575
1557969619.713255	-5.0439111328	0.1532812500	10.5332958984	0.3270361819	0.0127831722	0.0053263222
1557969619.713274	-5.0199609375	0.1484912109	10.5045556641	0.3281014463	0.0117179078	0.0063915861
1557969619.713286	-5.0439111328	0.1532812500	10.4614453125	0.3281014463	0.0095873799	0.0074568505
1557969619.713294	-5.0630712891	0.1389111328	10.4470751953	0.3270361819	0.0106526444	0.0074568505
1557969619.713300	-5.0487011719	0.1101708984	10.4949755859	0.3259709174	0.0117179078	0.0085221150
1557969619.713306	-5.0582812500	0.1197509766	10.5332958984	0.3259709174	0.0127831722	0.0074568505
1557969619.713312	-5.1061816406	0.1341210938	10.5572460938	0.3270361819	0.0127831722	0.0063915861
1557969619.713318	-5.0966015625	0.0814306641	10.5907763672	0.3259709174	0.0127831722	0.0063915861
1557969619.713324	-5.0678613281	0.0766406250	10.5524560547	0.3259709174	0.0138484366	0.0053263222
1557969619.713330	-5.0726513672	0.1389111328	10.4901855469	0.3270361819	0.0138484366	0.0053263222
1557969619.723099	-5.0774414063	0.1389111328	10.4853955078	0.3281014463	0.0138484366	0.0063915861
1557969619.723122	-5.0582812500	0.1053808594	10.4614453125	0.3270361819	0.0138484366	0.0074568505
1557969619.723135	-5.0391210938	0.0958007813	10.4422851562	0.3270361819	0.0117179078	0.0074568505
1557969619.723141	-5.0439111328	0.0958007813	10.5189257813	0.3270361819	0.0106526444	0.0063915861
1557969619.723148	-5.0582812500	0.1053808594	10.5285058594	0.3281014463	0.0117179078	0.0063915861
1557969619.723154	-5.0487011719	0.1149609375	10.4614453125	0.3291667107	0.0117179078	0.0074568505
1557969619.723160	-5.0534912109	0.1293310547	10.4901855469	0.3291667107	0.0117179078	0.0074568505
1557969619.723166	-5.0726513672	0.1580712891	10.5332958984	0.3281014463	0.0127831722	0.0063915861
1557969619.723172	-5.0534912109	0.1437011719	10.4949755859	0.3270361819	0.0127831722	0.0053263222
1557969619.723178	-5.0774414063	0.1293310547	10.5476660156	0.3259709174	0.0138484366	0.0063915861
1557969619.731638	-5.0870214844	0.1532812500	10.5907763672	0.3259709174	0.0138484366	0.0063915861
1557969619.731667	-5.0630712891	0.1484912109	10.5380859375	0.3270361819	0.0138484366	0.0074568505
1557969619.731676	-5.0678613281	0.1149609375	10.4949755859	0.3291667107	0.0127831722	0.0063915861
1557969619.731682	-5.0487011719	0.1053808594	10.4135449219	0.3291667107	0.0127831722	0.0053263222
1557969619.731688	-5.0439111328	0.0958007813	10.4374951172	0.3291667107	0.0149137011	0.0053263222
1557969619.731694	-5.0487011719	0.0814306641	10.5093457031	0.3291667107	0.0159789655	0.0053263222
1557969619.731700	-5.0534912109	0.0958007813	10.4806054688	0.3281014463	0.0149137011	0.0053263222
1557969619.731706	-5.0630712891	0.1101708984	10.4758154297	0.3270361819	0.0138484366	0.0053263222
1557969619.731712	-5.0678613281	0.1437011719	10.4614453125	0.3281014463	0.0138484366	0.0063915861
1557969619.731718	-5.0582812500	0.1724414063	10.4758154297	0.3291667107	0.0117179078	0.0063915861
1557969619.742292	-5.0199609375	0.1580712891	10.5093457031	0.3291667107	0.0117179078	0.0063915861
1557969619.742311	-5.0295410156	0.1293310547	10.5141357422	0.3291667107	0.0138484366	0.0053263222
1557969619.742323	-5.0582812500	0.1293310547	10.5380859375	0.3291667107	0.0149137011	0.0053263222
1557969619.742335	-5.0439111328	0.1437011719	10.5141357422	0.3291667107	0.0138484366	0.0063915861
1557969619.742345	-5.0343310547	0.1628613281	10.4422851562	0.3291667107	0.0117179078	0.0063915861
1557969619.742351	-5.0534912109	0.1820214844	10.4710253906	0.3291667107	0.0117179078	0.0042610575
1557969619.742357	-5.1061816406	0.1963916016	10.5476660156	0.3281014463	0.0127831722	0.0042610575
1557969619.742372	-5.1061816406	0.2011816406	10.5045556641	0.3281014463	0.0138484366	0.0053263222
1557969619.742378	-5.0774414063	0.1916015625	10.4662353516	0.3302319752	0.0138484366	0.0053263222
1557969619.742384	-5.0582812500	0.1868115234	10.4327050781	0.3312972396	0.0149137011	0.0031957930
1557969619.753217	-5.0487011719	0.1916015625	10.3895947266	0.3302319752	0.0159789655	0.0031957930
1557969619.753232	-5.0678613281	0.1963916016	10.4422851562	0.3291667107	0.0159789655	0.0042610575
1557969619.753239	-5.0870214844	0.2251318359	10.5141357422	0.3302319752	0.0149137011	0.0042610575
1557969619.753246	-5.0918115234	0.2634521484	10.5141357422	0.3302319752	0.0149137011	0.0042610575
1557969619.753252	-5.0918115234	0.2395019531	10.4327050781	0.3302319752	0.0117179078	0.0031957930
1557969619.753258	-5.1013916016	0.2059716797	10.4231250000	0.3291667107	0.0095873799	0.0042610575
1557969619.753263	-5.0774414063	0.2251318359	10.4853955078	0.3281014463	0.0106526444	0.0063915861
1557969619.753270	-5.0534912109	0.2299218750	10.5189257813	0.3281014463	0.0117179078	0.0074568505
1557969619.753276	-5.0630712891	0.1916015625	10.5045556641	0.3291667107	0.0127831722	0.0074568505
1557969619.753282	-5.0726513672	0.1772314453	10.4853955078	0.3291667107	0.0138484366	0.0074568505
1557969619.763098	-5.0774414063	0.2107617188	10.5141357422	0.3291667107	0.0127831722	0.0063915861
1557969619.763120	-5.0582812500	0.2203417969	10.5045556641	0.3281014463	0.0117179078	0.0053263222
1557969619.763127	-5.0678613281	0.2011816406	10.4566552734	0.3270361819	0.0106526444	0.0053263222
1557969619.763134	-5.0678613281	0.2059716797	10.4806054688	0.3259709174	0.0117179078	0.0053263222
1557969619.763139	-5.0295410156	0.2155517578	10.4901855469	0.3249056530	0.0117179078	0.0053263222
1557969619.763145	-5.0439111328	0.1963916016	10.4662353516	0.3249056530	0.0117179078	0.0042610575
1557969619.763151	-5.0822314453	0.2107617188	10.4901855469	0.3249056530	0.0117179078	0.0031957930
1557969619.763157	-5.0822314453	0.2251318359	10.4901855469	0.3249056530	0.0117179078	0.0042610575
1557969619.763163	-5.0630712891	0.2155517578	10.4614453125	0.3249056530	0.0095873799	0.0074568505
1557969619.763169	-5.0726513672	0.2011816406	10.4806054688	0.3249056530	0.0106526444	0.0085221150
1557969619.772940	-5.0918115234	0.2011816406	10.5332958984	0.3259709174	0.0127831722	0.0074568505
1557969619.772953	-5.0870214844	0.2059716797	10.5428759766	0.3270361819	0.0138484366	0.0053263222
1557969619.772959	-5.0870214844	0.1963916016	10.5285058594	0.3270361819	0.0138484366	0.0053263222
1557969619.772966	-5.0918115234	0.2011816406	10.5572460938	0.3259709174	0.0138484366	0.0063915861
1557969619.772972	-5.0774414063	0.2059716797	10.5141357422	0.3238403886	0.0149137011	0.0063915861
1557969619.772978	-5.0774414063	0.1820214844	10.4183349609	0.3227751241	0.0149137011	0.0063915861
1557969619.772984	-5.1013916016	0.1772314453	10.4279150391	0.3227751241	0.0138484366	0.0063915861
1557969619.772990	-5.1205517578	0.1963916016	10.4997656250	0.3249056530	0.0127831722	0.0074568505
1557969619.772996	-5.1109716797	0.2299218750	10.5285058594	0.3270361819	0.0127831722	0.0074568505
1557969619.773002	-5.0870214844	0.2203417969	10.5524560547	0.3270361819	0.0127831722	0.0063915861
1557969619.781809	-5.0582812500	0.1916015625	10.5572460938	0.3270361819	0.0138484366	0.0063915861
1557969619.781821	-5.0487011719	0.2059716797	10.5045556641	0.3259709174	0.0138484366	0.0053263222
1557969619.781828	-5.0678613281	0.1868115234	10.4758154297	0.3259709174	0.0138484366	0.0053263222
1557969619.781835	-5.0822314453	0.1676513672	10.5045556641	0.3249056530	0.0127831722	0.0053263222
1557969619.781841	-5.0678613281	0.1676513672	10.5141357422	0.3238403886	0.0117179078	0.0053263222
1557969619.781846	-5.0391210938	0.1868115234	10.4327050781	0.3249056530	0.0127831722	0.0053263222
1557969619.781853	-5.0439111328	0.1868115234	10.4518652344	0.3270361819	0.0127831722	0.0042610575
1557969619.781859	-5.0822314453	0.1628613281	10.5524560547	0.3281014463	0.0117179078	0.0042610575
1557969619.781865	-5.0726513672	0.1293310547	10.5476660156	0.3270361819	0.0117179078	0.0063915861
1557969619.781880	-5.0439111328	0.1341210938	10.5045556641	0.3259709174	0.0117179078	0.0074568505
1557969619.793010	-5.0439111328	0.1628613281	10.4758154297	0.3249056530	0.0106526444	0.0063915861
1557969619.793021	-5.0582812500	0.1389111328	10.4566552734	0.3259709174	0.0106526444	0.0053263222
1557969619.793028	-5.0630712891	0.1101708984	10.4662353516	0.3270361819	0.0138484366	0.0053263222
1557969619.793034	-5.0726513672	0.1245410156	10.4614453125	0.3259709174	0.0170442299	0.0063915861
1557969619.793041	-5.1013916016	0.1724414063	10.4853955078	0.3281014463	0.0181094954	0.0063915861
1557969619.793047	-5.1061816406	0.2059716797	10.5524560547	0.3302319752	0.0149137011	0.0053263222
1557969619.793053	-5.0822314453	0.1868115234	10.5428759766	0.3302319752	0.0117179078	0.0042610575
1557969619.793059	-5.0822314453	0.1772314453	10.5189257813	0.3270361819	0.0117179078	0.0042610575
1557969619.793065	-5.1013916016	0.2011816406	10.5045556641	0.3259709174	0.0127831722	0.0031957930
1557969619.793071	-5.0870214844	0.2155517578	10.4758154297	0.3259709174	0.0138484366	0.0031957930
1557969619.803079	-5.0822314453	0.2107617188	10.4662353516	0.3281014463	0.0138484366	0.0042610575
1557969619.803092	-5.1013916016	0.2059716797	10.4710253906	0.3291667107	0.0138484366	0.0053263222
1557969619.803102	-5.0822314453	0.1868115234	10.4662353516	0.3291667107	0.0138484366	0.0053263222
1557969619.803108	-5.0534912109	0.1484912109	10.4806054688	0.3281014463	0.0127831722	0.0042610575
1557969619.803114	-5.0630712891	0.1628613281	10.5093457031	0.3281014463	0.0127831722	0.0053263222
1557969619.803120	-5.0870214844	0.1868115234	10.5285058594	0.3270361819	0.0138484366	0.0063915861
1557969619.803126	-5.1109716797	0.1963916016	10.5237158203	0.3249056530	0.0138484366	0.0053263222
1557969619.803132	-5.1109716797	0.1868115234	10.5332958984	0.3238403886	0.0138484366	0.0053263222
1557969619.803138	-5.0918115234	0.1389111328	10.4901855469	0.3249056530	0.0138484366	0.0053263222
1557969619.803144	-5.0487011719	0.1245410156	10.4566552734	0.3270361819	0.0149137011	0.0063915861
1557969619.812995	-5.0247509766	0.1389111328	10.4758154297	0.3270361819	0.0159789655	0.0053263222
1557969619.813018	-5.0630712891	0.1293310547	10.4901855469	0.3281014463	0.0149137011	0.0042610575
1557969619.813025	-5.0870214844	0.1149609375	10.4806054688	0.3281014463	0.0127831722	0.0053263222
1557969619.813031	-5.1061816406	0.1149609375	10.5428759766	0.3259709174	0.0117179078	0.0063915861
1557969619.813037	-5.1061816406	0.1341210938	10.5907763672	0.3227751241	0.0117179078	0.0063915861
1557969619.813043	-5.0678613281	0.1532812500	10.5476660156	0.3227751241	0.0117179078	0.0063915861
1557969619.813049	-5.0678613281	0.1341210938	10.4949755859	0.3249056530	0.0117179078	0.0063915861
1557969619.813055	-5.0870214844	0.1101708984	10.4422851562	0.3259709174	0.0127831722	0.0074568505
1557969619.813061	-5.1109716797	0.1053808594	10.4710253906	0.3249056530	0.0138484366	0.0074568505
1557969619.813066	-5.0822314453	0.1197509766	10.5237158203	0.3238403886	0.0127831722	0.0063915861
1557969619.822618	-5.0343310547	0.1149609375	10.5524560547	0.3238403886	0.0117179078	0.0063915861
1557969619.822684	-5.0247509766	0.0958007813	10.5859863281	0.3249056530	0.0127831722	0.0063915861
1557969619.822697	-5.0534912109	0.1053808594	10.5716162109	0.3270361819	0.0138484366	0.0063915861
1557969619.822704	-5.0870214844	0.1484912109	10.5141357422	0.3281014463	0.0149137011	0.0063915861
1557969619.822711	-5.0870214844	0.1484912109	10.4662353516	0.3291667107	0.0138484366	0.0063915861
1557969619.822717	-5.0487011719	0.1389111328	10.4374951172	0.3270361819	0.0127831722	0.0053263222
1557969619.822723	-5.0439111328	0.1437011719	10.4422851562	0.3249056530	0.0138484366	0.0053263222
1557969619.822729	-5.0918115234	0.1197509766	10.4662353516	0.3249056530	0.0138484366	0.0053263222
1557969619.822735	-5.1013916016	0.1149609375	10.4949755859	0.3249056530	0.0127831722	0.0042610575
1557969619.822741	-5.0774414063	0.1389111328	10.5141357422	0.3259709174	0.0127831722	0.0053263222
1557969619.831817	-5.0726513672	0.1197509766	10.5237158203	0.3249056530	0.0149137011	0.0063915861
1557969619.831849	-5.0918115234	0.1341210938	10.5237158203	0.3249056530	0.0149137011	0.0053263222
1557969619.831856	-5.0918115234	0.1724414063	10.5285058594	0.3249056530	0.0127831722	0.0053263222
1557969619.831862	-5.0678613281	0.1580712891	10.5524560547	0.3259709174	0.0127831722	0.0053263222
1557969619.831868	-5.0678613281	0.1149609375	10.5380859375	0.3270361819	0.0117179078	0.0063915861
1557969619.831875	-5.0966015625	0.1053808594	10.4853955078	0.3270361819	0.0106526444	0.0074568505
1557969619.831881	-5.1013916016	0.1149609375	10.4662353516	0.3259709174	0.0106526444	0.0085221150
1557969619.831887	-5.0870214844	0.1245410156	10.4758154297	0.3259709174	0.0127831722	0.0063915861
1557969619.831893	-5.0678613281	0.1484912109	10.5332958984	0.3259709174	0.0138484366	0.0053263222
1557969619.831898	-5.0726513672	0.1484912109	10.5620361328	0.3270361819	0.0138484366	0.0053263222
1557969619.842952	-5.0822314453	0.1389111328	10.5332958984	0.3270361819	0.0127831722	0.0042610575
1557969619.842965	-5.0726513672	0.1341210938	10.5189257813	0.3270361819	0.0149137011	0.0042610575
1557969619.842972	-5.1013916016	0.1245410156	10.5668261719	0.3270361819	0.0149137011	0.0053263222
1557969619.842978	-5.0966015625	0.1197509766	10.5907763672	0.3259709174	0.0138484366	0.0063915861
1557969619.842984	-5.0582812500	0.1293310547	10.5285058594	0.3259709174	0.0117179078	0.0063915861
1557969619.842990	-5.0534912109	0.1628613281	10.4997656250	0.3259709174	0.0106526444	0.0053263222
1557969619.842996	-5.0630712891	0.1963916016	10.5141357422	0.3270361819	0.0117179078	0.0053263222
1557969619.843003	-5.0918115234	0.1916015625	10.4758154297	0.3291667107	0.0138484366	0.0063915861
1557969619.843009	-5.1109716797	0.1628613281	10.4422851562	0.3291667107	0.0117179078	0.0074568505
1557969619.843014	-5.0582812500	0.1628613281	10.4566552734	0.3291667107	0.0095873799	0.0063915861
1557969619.851689	-5.0151708984	0.1484912109	10.4853955078	0.3270361819	0.0117179078	0.0053263222
1557969619.851738	-5.0582812500	0.1293310547	10.4949755859	0.3259709174	0.0149137011	0.0042610575
1557969619.851750	-5.1157617187	0.1484912109	10.5093457031	0.3270361819	0.0149137011	0.0042610575
1557969619.851757	-5.1013916016	0.1628613281	10.5332958984	0.3291667107	0.0117179078	0.0042610575
1557969619.851763	-5.0822314453	0.1389111328	10.5141357422	0.3302319752	0.0106526444	0.0053263222
1557969619.851770	-5.0774414063	0.1341210938	10.5237158203	0.3281014463	0.0106526444	0.0063915861
1557969619.851776	-5.0822314453	0.1676513672	10.5093457031	0.3270361819	0.0127831722	0.0053263222
1557969619.851782	-5.0582812500	0.1676513672	10.5141357422	0.3281014463	0.0149137011	0.0053263222
1557969619.851788	-5.0534912109	0.1532812500	10.5045556641	0.3302319752	0.0138484366	0.0074568505
1557969619.851794	-5.0918115234	0.1772314453	10.4614453125	0.3302319752	0.0138484366	0.0074568505
1557969619.862567	-5.0966015625	0.1580712891	10.4949755859	0.3291667107	0.0127831722	0.0063915861
1557969619.862586	-5.0870214844	0.1245410156	10.5380859375	0.3281014463	0.0106526444	0.0063915861
1557969619.862593	-5.0726513672	0.1437011719	10.5141357422	0.3281014463	0.0117179078	0.0053263222
1557969619.862599	-5.0678613281	0.1484912109	10.5141357422	0.3270361819	0.0117179078	0.0053263222
1557969619.862605	-5.0966015625	0.1197509766	10.5476660156	0.3259709174	0.0127831722	0.0053263222
1557969619.862611	-5.0966015625	0.1101708984	10.5716162109	0.3259709174	0.0127831722	0.0053263222
1557969619.862617	-5.0726513672	0.1149609375	10.5285058594	0.3270361819	0.0127831722	0.0063915861
1557969619.862623	-5.0630712891	0.1580712891	10.4566552734	0.3270361819	0.0127831722	0.0063915861
1557969619.862629	-5.0630712891	0.1676513672	10.4806054688	0.3270361819	0.0138484366	0.0063915861
1557969619.862635	-5.0822314453	0.1053808594	10.5045556641	0.3270361819	0.0138484366	0.0053263222
1557969619.873204	-5.0726513672	0.1293310547	10.4901855469	0.3270361819	0.0127831722	0.0053263222
1557969619.873218	-5.0726513672	0.1628613281	10.5332958984	0.3291667107	0.0127831722	0.0053263222
1557969619.873224	-5.0822314453	0.1437011719	10.5668261719	0.3281014463	0.0138484366	0.0053263222
1557969619.873239	-5.0774414063	0.1628613281	10.4901855469	0.3270361819	0.0138484366	0.0053263222
1557969619.873245	-5.0822314453	0.1628613281	10.3943847656	0.3259709174	0.0138484366	0.0053263222
1557969619.873252	-5.0870214844	0.1532812500	10.3752246094	0.3270361819	0.0138484366	0.0053263222
1557969619.873258	-5.1109716797	0.1389111328	10.4566552734	0.3270361819	0.0138484366	0.0063915861
1557969619.873264	-5.1061816406	0.1293310547	10.5476660156	0.3249056530	0.0149137011	0.0074568505
1557969619.873270	-5.0870214844	0.1341210938	10.5285058594	0.3227751241	0.0149137011	0.0074568505
1557969619.873276	-5.1061816406	0.1245410156	10.5093457031	0.3227751241	0.0149137011	0.0074568505
1557969619.881632	-5.0966015625	0.1053808594	10.5476660156	0.3249056530	0.0127831722	0.0053263222
1557969619.881652	-5.0726513672	0.1101708984	10.5380859375	0.3270361819	0.0106526444	0.0053263222
1557969619.881664	-5.0822314453	0.1389111328	10.5285058594	0.3270361819	0.0117179078	0.0053263222
1557969619.881673	-5.0918115234	0.1532812500	10.5524560547	0.3281014463	0.0117179078	0.0063915861
1557969619.881679	-5.0726513672	0.1772314453	10.4949755859	0.3270361819	0.0117179078	0.0063915861
1557969619.881685	-5.0534912109	0.1820214844	10.4327050781	0.3270361819	0.0127831722	0.0053263222
1557969619.881691	-5.0726513672	0.1437011719	10.4614453125	0.3281014463	0.0138484366	0.0053263222
1557969619.881697	-5.0870214844	0.1197509766	10.4758154297	0.3270361819	0.0149137011	0.0053263222
1557969619.881703	-5.0774414063	0.1149609375	10.4853955078	0.3281014463	0.0159789655	0.0063915861
1557969619.881709	-5.0678613281	0.1149609375	10.5237158203	0.3281014463	0.0149137011	0.0053263222
1557969619.891388	-5.0726513672	0.1437011719	10.5237158203	0.3291667107	0.0138484366	0.0053263222
1557969619.891417	-5.0487011719	0.1532812500	10.5045556641	0.3291667107	0.0127831722	0.0053263222
1557969619.891425	-5.0439111328	0.1293310547	10.5093457031	0.3291667107	0.0117179078	0.0053263222
1557969619.891431	-5.0774414063	0.1389111328	10.4853955078	0.3291667107	0.0117179078	0.0042610575
1557969619.891437	-5.0582812500	0.1580712891	10.4758154297	0.3291667107	0.0127831722	0.0053263222
1557969619.891443	-5.0343310547	0.1532812500	10.4853955078	0.3281014463	0.0138484366	0.0053263222
1557969619.891449	-5.0678613281	0.1772314453	10.4758154297	0.3270361819	0.0149137011	0.0053263222
1557969619.891455	-5.0870214844	0.1963916016	10.5285058594	0.3270361819	0.0159789655	0.0053263222
1557969619.891461	-5.0918115234	0.1484912109	10.5668261719	0.3270361819	0.0159789655	0.0053263222
1557969619.891467	-5.0774414063	0.1484912109	10.5141357422	0.3281014463	0.0149137011	0.0053263222
1557969619.902564	-5.0726513672	0.1916015625	10.4901855469	0.3291667107	0.0138484366	0.0053263222
1557969619.902580	-5.0966015625	0.1820214844	10.5141357422	0.3291667107	0.0149137011	0.0053263222
1557969619.902591	-5.1061816406	0.1772314453	10.5141357422	0.3291667107	0.0149137011	0.0053263222
1557969619.902601	-5.1253417969	0.1868115234	10.4806054688	0.3281014463	0.0138484366	0.0074568505
1557969619.902608	-5.1061816406	0.1580712891	10.5045556641	0.3281014463	0.0138484366	0.0074568505
1557969619.902614	-5.0966015625	0.1005908203	10.5045556641	0.3270361819	0.0117179078	0.0063915861
1557969619.902620	-5.1205517578	0.1005908203	10.4566552734	0.3259709174	0.0127831722	0.0031957930
1557969619.902627	-5.1205517578	0.1580712891	10.4949755859	0.3249056530	0.0127831722	0.0031957930
1557969619.902632	-5.1061816406	0.1628613281	10.4901855469	0.3259709174	0.0127831722	0.0031957930
1557969619.902638	-5.1061816406	0.1341210938	10.4566552734	0.3270361819	0.0117179078	0.0042610575
1557969619.912613	-5.1301318359	0.1676513672	10.4566552734	0.3281014463	0.0106526444	0.0042610575
1557969619.912631	-5.1349218750	0.2011816406	10.4566552734	0.3291667107	0.0095873799	0.0053263222
1557969619.912643	-5.1349218750	0.1820214844	10.4853955078	0.3270361819	0.0117179078	0.0053263222
1557969619.912654	-5.1061816406	0.1628613281	10.5237158203	0.3259709174	0.0138484366	0.0053263222
1557969619.912673	-5.0870214844	0.1437011719	10.5476660156	0.3270361819	0.0138484366	0.0053263222
1557969619.912679	-5.1061816406	0.1628613281	10.4758154297	0.3281014463	0.0127831722	0.0053263222
1557969619.912685	-5.0966015625	0.2203417969	10.4039648437	0.3270361819	0.0127831722	0.0053263222
1557969619.912692	-5.0870214844	0.2251318359	10.3991748047	0.3270361819	0.0138484366	0.0063915861
1557969619.912698	-5.1157617187	0.1676513672	10.4087548828	0.3249056530	0.0149137011	0.0053263222
1557969619.912704	-5.1253417969	0.1676513672	10.4662353516	0.3238403886	0.0127831722	0.0063915861
1557969619.921356	-5.1061816406	0.2011816406	10.5332958984	0.3238403886	0.0127831722	0.0074568505
1557969619.921374	-5.1061816406	0.1676513672	10.5380859375	0.3249056530	0.0127831722	0.0063915861
1557969619.921386	-5.1157617187	0.1484912109	10.5189257813	0.3270361819	0.0117179078	0.0053263222
1557969619.921393	-5.0918115234	0.1724414063	10.5428759766	0.3270361819	0.0095873799	0.0042610575
1557969619.921400	-5.0582812500	0.1916015625	10.5141357422	0.3259709174	0.0095873799	0.0042610575
1557969619.921406	-5.0726513672	0.2251318359	10.4374951172	0.3259709174	0.0117179078	0.0053263222
1557969619.921412	-5.1205517578	0.2251318359	10.4470751953	0.3270361819	0.0149137011	0.0063915861
1557969619.921417	-5.1109716797	0.1916015625	10.4901855469	0.3259709174	0.0159789655	0.0063915861
1557969619.921424	-5.0630712891	0.2107617188	10.4949755859	0.3259709174	0.0159789655	0.0053263222
1557969619.921430	-5.0630712891	0.2107617188	10.4949755859	0.3259709174	0.0117179078	0.0042610575
1557969619.932410	-5.1013916016	0.1724414063	10.4758154297	0.3259709174	0.0085221150	0.0042610575
1557969619.932432	-5.1061816406	0.1628613281	10.4853955078	0.3259709174	0.0085221150	0.0053263222
1557969619.932439	-5.0726513672	0.1676513672	10.4949755859	0.3249056530	0.0117179078	0.0053263222
1557969619.932445	-5.0822314453	0.1532812500	10.4710253906	0.3249056530	0.0127831722	0.0053263222
1557969619.932451	-5.0870214844	0.1676513672	10.4470751953	0.3249056530	0.0117179078	0.0053263222
1557969619.932457	-5.0726513672	0.1724414063	10.5141357422	0.3259709174	0.0106526444	0.0063915861
1557969619.932463	-5.0966015625	0.1532812500	10.5668261719	0.3259709174	0.0117179078	0.0063915861
1557969619.932469	-5.0822314453	0.1437011719	10.4901855469	0.3259709174	0.0138484366	0.0063915861
1557969619.932475	-5.0582812500	0.1532812500	10.4518652344	0.3259709174	0.0149137011	0.0053263222
1557969619.932481	-5.0295410156	0.1820214844	10.4901855469	0.3270361819	0.0127831722	0.0053263222
1557969619.942253	-5.0295410156	0.1868115234	10.5093457031	0.3281014463	0.0106526444	0.0053263222
1557969619.942272	-5.0726513672	0.1868115234	10.5093457031	0.3270361819	0.0095873799	0.0053263222
1557969619.942282	-5.0918115234	0.1963916016	10.5189257813	0.3259709174	0.0106526444	0.0053263222
1557969619.942291	-5.0966015625	0.1868115234	10.4853955078	0.3249056530	0.0117179078	0.0063915861
1557969619.942301	-5.1061816406	0.1676513672	10.4231250000	0.3259709174	0.0117179078	0.0053263222
1557969619.942310	-5.1061816406	0.1676513672	10.4470751953	0.3270361819	0.0117179078	0.0053263222
1557969619.942319	-5.0822314453	0.1580712891	10.5189257813	0.3270361819	0.0127831722	0.0053263222
1557969619.942328	-5.0726513672	0.1676513672	10.5572460938	0.3270361819	0.0117179078	0.0042610575
1557969619.942338	-5.0966015625	0.1772314453	10.5237158203	0.3270361819	0.0127831722	0.0042610575
1557969619.942348	-5.1109716797	0.1772314453	10.4614453125	0.3281014463	0.0127831722	0.0042610575
1557969619.952182	-5.0966015625	0.1916015625	10.4662353516	0.3281014463	0.0127831722	0.0042610575
1557969619.952204	-5.1013916016	0.1628613281	10.4997656250	0.3281014463	0.0117179078	0.0042610575
1557969619.952212	-5.1157617187	0.1532812500	10.4949755859	0.3270361819	0.0106526444	0.0053263222
1557969619.952218	-5.1301318359	0.1772314453	10.4806054688	0.3259709174	0.0106526444	0.0063915861
1557969619.952224	-5.1205517578	0.1868115234	10.5428759766	0.3259709174	0.0117179078	0.0053263222
1557969619.952230	-5.0870214844	0.1676513672	10.5811962891	0.3281014463	0.0127831722	0.0053263222
1557969619.952245	-5.0870214844	0.1820214844	10.5859863281	0.3281014463	0.0117179078	0.0042610575
1557969619.952251	-5.0966015625	0.1820214844	10.5428759766	0.3281014463	0.0117179078	0.0042610575
1557969619.952257	-5.0678613281	0.1293310547	10.4949755859	0.3259709174	0.0106526444	0.0042610575
1557969619.952263	-5.0630712891	0.1245410156	10.4662353516	0.3249056530	0.0117179078	0.0053263222
1557969619.963350	-5.0774414063	0.1437011719	10.4279150391	0.3259709174	0.0127831722	0.0053263222
1557969619.963361	-5.0678613281	0.1580712891	10.4327050781	0.3281014463	0.0138484366	0.0053263222
1557969619.963368	-5.0582812500	0.1963916016	10.4758154297	0.3291667107	0.0127831722	0.0053263222
1557969619.963374	-5.0630712891	0.2059716797	10.5572460938	0.3281014463	0.0106526444	0.0063915861
1557969619.963381	-5.0582812500	0.1484912109	10.5476660156	0.3259709174	0.0106526444	0.0053263222
1557969619.963387	-5.0678613281	0.1341210938	10.5045556641	0.3259709174	0.0117179078	0.0053263222
1557969619.963393	-5.0966015625	0.1484912109	10.4758154297	0.3249056530	0.0127831722	0.0053263222
1557969619.963399	-5.0822314453	0.1437011719	10.4997656250	0.3249056530	0.0117179078	0.0053263222
1557969619.963405	-5.0630712891	0.1724414063	10.4949755859	0.3249056530	0.0106526444	0.0053263222
1557969619.963412	-5.0726513672	0.1916015625	10.4279150391	0.3249056530	0.0106526444	0.0063915861
1557969619.972198	-5.0918115234	0.1580712891	10.4470751953	0.3249056530	0.0106526444	0.0063915861
1557969619.972220	-5.0774414063	0.1149609375	10.5093457031	0.3259709174	0.0117179078	0.0053263222
1557969619.972230	-5.0534912109	0.1101708984	10.4566552734	0.3270361819	0.0138484366	0.0053263222
1557969619.972240	-5.0487011719	0.1005908203	10.3608544922	0.3259709174	0.0149137011	0.0063915861
1557969619.972249	-5.0439111328	0.1149609375	10.4231250000	0.3249056530	0.0138484366	0.0063915861
1557969619.972259	-5.0391210938	0.1437011719	10.5093457031	0.3238403886	0.0127831722	0.0063915861
1557969619.972268	-5.0439111328	0.1628613281	10.4997656250	0.3249056530	0.0127831722	0.0053263222
1557969619.972277	-5.0678613281	0.1532812500	10.5237158203	0.3259709174	0.0117179078	0.0042610575
1557969619.972286	-5.0678613281	0.1293310547	10.4997656250	0.3270361819	0.0106526444	0.0042610575
1557969619.972296	-5.0487011719	0.1628613281	10.4566552734	0.3270361819	0.0117179078	0.0053263222
1557969619.982885	-5.0534912109	0.1772314453	10.4518652344	0.3259709174	0.0117179078	0.0063915861
1557969619.982904	-5.0630712891	0.1245410156	10.4518652344	0.3259709174	0.0117179078	0.0074568505
1557969619.982911	-5.0630712891	0.1101708984	10.4997656250	0.3259709174	0.0117179078	0.0074568505
1557969619.982917	-5.0295410156	0.1437011719	10.5189257813	0.3259709174	0.0127831722	0.0063915861
1557969619.982923	-5.0103808594	0.1389111328	10.5237158203	0.3259709174	0.0117179078	0.0063915861
1557969619.982929	-5.0103808594	0.1293310547	10.5141357422	0.3270361819	0.0117179078	0.0074568505
1557969619.982935	-5.0199609375	0.1389111328	10.4949755859	0.3259709174	0.0117179078	0.0063915861
1557969619.982941	-5.0678613281	0.1293310547	10.4566552734	0.3249056530	0.0138484366	0.0053263222
1557969619.982947	-5.0822314453	0.1101708984	10.4422851562	0.3238403886	0.0138484366	0.0063915861
1557969619.982952	-5.0966015625	0.0958007813	10.4566552734	0.3238403886	0.0127831722	0.0053263222
1557969619.991570	-5.1061816406	0.1197509766	10.5045556641	0.3249056530	0.0117179078	0.0042610575
1557969619.991581	-5.0726513672	0.1293310547	10.5668261719	0.3270361819	0.0117179078	0.0042610575
1557969619.991588	-5.0822314453	0.1341210938	10.5907763672	0.3270361819	0.0127831722	0.0053263222
1557969619.991594	-5.0918115234	0.1437011719	10.5620361328	0.3270361819	0.0138484366	0.0063915861
1557969619.991601	-5.1061816406	0.1389111328	10.4806054688	0.3270361819	0.0149137011	0.0074568505
1557969619.991607	-5.0966015625	0.1149609375	10.4422851562	0.3270361819	0.0149137011	0.0063915861
1557969619.991613	-5.0582812500	0.1005908203	10.4422851562	0.3281014463	0.0138484366	0.0053263222
1557969619.991619	-5.0295410156	0.0862207031	10.5045556641	0.3281014463	0.0127831722	0.0031957930
1557969619.991635	-5.0582812500	0.0718505859	10.5572460938	0.3281014463	0.0106526444	0.0031957930
1557969619.991641	-5.1061816406	0.0814306641	10.4853955078	0.3281014463	0.0117179078	0.0042610575
1557969620.002613	-5.0966015625	0.0910107422	10.4614453125	0.3281014463	0.0117179078	0.0053263222
1557969620.002623	-5.0487011719	0.1341210938	10.5189257813	0.3270361819	0.0127831722	0.0053263222
1557969620.002630	-5.0439111328	0.1437011719	10.5237158203	0.3259709174	0.0138484366	0.0053263222
1557969620.002636	-5.0391210938	0.1101708984	10.5093457031	0.3259709174	0.0138484366	0.0053263222
1557969620.002642	-5.0055908203	0.1149609375	10.4949755859	0.3259709174	0.0127831722	0.0053263222
1557969620.002649	-5.0199609375	0.1580712891	10.4806054688	0.3259709174	0.0127831722	0.0063915861
1557969620.002656	-5.0008007813	0.1820214844	10.5141357422	0.3259709174	0.0127831722	0.0063915861
1557969620.002661	-4.9912207031	0.1628613281	10.5332958984	0.3270361819	0.0127831722	0.0053263222
1557969620.002668	-5.0295410156	0.1437011719	10.5045556641	0.3270361819	0.0127831722	0.0053263222
1557969620.002674	-5.0630712891	0.1484912109	10.4806054688	0.3270361819	0.0127831722	0.0042610575
1557969620.012519	-5.0678613281	0.1628613281	10.4374951172	0.3270361819	0.0127831722	0.0042610575
1557969620.012537	-5.0439111328	0.1676513672	10.4374951172	0.3270361819	0.0138484366	0.0053263222
1557969620.012544	-5.0247509766	0.1772314453	10.5237158203	0.3270361819	0.0127831722	0.0053263222
1557969620.012550	-5.0343310547	0.1532812500	10.5141357422	0.3259709174	0.0117179078	0.0053263222
1557969620.012556	-5.0487011719	0.1484912109	10.4566552734	0.3259709174	0.0138484366	0.0063915861
1557969620.012562	-5.0678613281	0.1628613281	10.4518652344	0.3259709174	0.0159789655	0.0063915861
1557969620.012568	-5.0870214844	0.1580712891	10.4901855469	0.3259709174	0.0159789655	0.0063915861
1557969620.012574	-5.0630712891	0.1628613281	10.5237158203	0.3259709174	0.0138484366	0.0042610575
1557969620.012580	-5.0534912109	0.1580712891	10.5237158203	0.3270361819	0.0127831722	0.0053263222
1557969620.012586	-5.0582812500	0.1484912109	10.5045556641	0.3270361819	0.0117179078	0.0074568505
1557969620.022425	-5.0774414063	0.1724414063	10.4901855469	0.3259709174	0.0117179078	0.0074568505
1557969620.022447	-5.0774414063	0.1963916016	10.5189257813	0.3259709174	0.0127831722	0.0053263222
1557969620.022454	-5.0534912109	0.1724414063	10.5716162109	0.3259709174	0.0106526444	0.0053263222
1557969620.022460	-5.0295410156	0.1341210938	10.5859863281	0.3270361819	0.0117179078	0.0063915861
1557969620.022466	-5.0151708984	0.1149609375	10.5141357422	0.3270361819	0.0138484366	0.0063915861
1557969620.022472	-5.0630712891	0.1341210938	10.4806054688	0.3270361819	0.0159789655	0.0063915861
1557969620.022478	-5.0726513672	0.1532812500	10.4949755859	0.3270361819	0.0149137011	0.0063915861
1557969620.022484	-5.0247509766	0.1389111328	10.5380859375	0.3270361819	0.0138484366	0.0063915861
1557969620.022490	-5.0151708984	0.1341210938	10.5285058594	0.3270361819	0.0149137011	0.0063915861
1557969620.022496	-5.0199609375	0.1484912109	10.4806054688	0.3270361819	0.0138484366	0.0063915861
1557969620.033376	-5.0582812500	0.1341210938	10.4518652344	0.3270361819	0.0117179078	0.0063915861
1557969620.033394	-5.1061816406	0.1149609375	10.4806054688	0.3270361819	0.0127831722	0.0063915861
1557969620.033404	-5.0822314453	0.1389111328	10.5572460938	0.3281014463	0.0127831722	0.0063915861
1557969620.033413	-5.0391210938	0.1580712891	10.5428759766	0.3270361819	0.0127831722	0.0063915861
1557969620.033423	-5.0391210938	0.1437011719	10.4662353516	0.3270361819	0.0138484366	0.0074568505
1557969620.033432	-5.0726513672	0.1389111328	10.4566552734	0.3259709174	0.0138484366	0.0074568505
1557969620.033442	-5.0678613281	0.1341210938	10.4710253906	0.3259709174	0.0138484366	0.0063915861
1557969620.033451	-5.0870214844	0.1341210938	10.4901855469	0.3249056530	0.0138484366	0.0042610575
1557969620.033460	-5.0966015625	0.1293310547	10.5093457031	0.3259709174	0.0127831722	0.0042610575
1557969620.033470	-5.1013916016	0.1484912109	10.4758154297	0.3270361819	0.0117179078	0.0053263222
1557969620.042148	-5.1253417969	0.1532812500	10.4135449219	0.3291667107	0.0117179078	0.0063915861
1557969620.042171	-5.1157617187	0.1724414063	10.4327050781	0.3291667107	0.0127831722	0.0074568505
1557969620.042177	-5.0966015625	0.1724414063	10.5045556641	0.3281014463	0.0138484366	0.0063915861
1557969620.042183	-5.0918115234	0.1341210938	10.5045556641	0.3291667107	0.0149137011	0.0053263222
1557969620.042189	-5.0918115234	0.1341210938	10.4758154297	0.3291667107	0.0149137011	0.0053263222
1557969620.042196	-5.0822314453	0.1628613281	10.4997656250	0.3281014463	0.0127831722	0.0053263222
1557969620.042202	-5.0774414063	0.1724414063	10.5285058594	0.3259709174	0.0106526444	0.0053263222
1557969620.042207	-5.0774414063	0.1580712891	10.4374951172	0.3259709174	0.0117179078	0.0053263222
1557969620.042214	-5.0726513672	0.1628613281	10.3943847656	0.3270361819	0.0127831722	0.0053263222
1557969620.042220	-5.0678613281	0.1437011719	10.4758154297	0.3270361819	0.0106526444	0.0053263222
1557969620.052894	-5.0966015625	0.1149609375	10.4662353516	0.3281014463	0.0117179078	0.0053263222
1557969620.052915	-5.1205517578	0.1389111328	10.4566552734	0.3302319752	0.0138484366	0.0042610575
1557969620.052927	-5.0918115234	0.1772314453	10.4997656250	0.3312972396	0.0149137011	0.0053263222
1557969620.052934	-5.0774414063	0.2011816406	10.5428759766	0.3302319752	0.0138484366	0.0053263222
1557969620.052941	-5.1013916016	0.1868115234	10.5764062500	0.3281014463	0.0149137011	0.0053263222
1557969620.052947	-5.0966015625	0.1580712891	10.5476660156	0.3281014463	0.0138484366	0.0053263222
1557969620.052953	-5.0822314453	0.1484912109	10.4710253906	0.3281014463	0.0117179078	0.0063915861
1557969620.052958	-5.1109716797	0.1197509766	10.4422851562	0.3281014463	0.0106526444	0.0074568505
1557969620.052965	-5.1253417969	0.1245410156	10.4901855469	0.3281014463	0.0117179078	0.0074568505
1557969620.052971	-5.1061816406	0.1437011719	10.5093457031	0.3270361819	0.0117179078	0.0063915861
1557969620.063848	-5.1253417969	0.1532812500	10.4997656250	0.3281014463	0.0127831722	0.0053263222
1557969620.063870	-5.1397119141	0.1868115234	10.5141357422	0.3281014463	0.0127831722	0.0053263222
1557969620.063880	-5.1205517578	0.1772314453	10.5045556641	0.3270361819	0.0127831722	0.0063915861
1557969620.063890	-5.1109716797	0.1580712891	10.4710253906	0.3259709174	0.0117179078	0.0063915861
1557969620.063899	-5.1109716797	0.1628613281	10.4518652344	0.3259709174	0.0127831722	0.0063915861
1557969620.063909	-5.1109716797	0.1628613281	10.4518652344	0.3259709174	0.0138484366	0.0063915861
1557969620.063918	-5.1109716797	0.1484912109	10.4662353516	0.3270361819	0.0127831722	0.0063915861
1557969620.063927	-5.1013916016	0.1820214844	10.4806054688	0.3249056530	0.0106526444	0.0063915861
1557969620.063937	-5.1205517578	0.1868115234	10.5285058594	0.3249056530	0.0106526444	0.0063915861
1557969620.063946	-5.1253417969	0.1484912109	10.5572460938	0.3249056530	0.0106526444	0.0063915861
1557969620.072632	-5.1205517578	0.1437011719	10.5380859375	0.3270361819	0.0117179078	0.0063915861
1557969620.072651	-5.1301318359	0.1772314453	10.5045556641	0.3281014463	0.0138484366	0.0053263222
1557969620.072658	-5.1397119141	0.2107617188	10.4853955078	0.3291667107	0.0149137011	0.0053263222
1557969620.072664	-5.1157617187	0.1916015625	10.4710253906	0.3291667107	0.0149137011	0.0053263222
1557969620.072670	-5.0918115234	0.1484912109	10.4518652344	0.3281014463	0.0138484366	0.0053263222
1557969620.072676	-5.0966015625	0.1484912109	10.4518652344	0.3270361819	0.0117179078	0.0063915861
1557969620.072682	-5.0870214844	0.1820214844	10.4901855469	0.3270361819	0.0127831722	0.0063915861
1557969620.072688	-5.1013916016	0.2011816406	10.4997656250	0.3270361819	0.0149137011	0.0063915861
1557969620.072694	-5.1397119141	0.1963916016	10.4949755859	0.3259709174	0.0149137011	0.0063915861
1557969620.072700	-5.1301318359	0.1484912109	10.5285058594	0.3259709174	0.0127831722	0.0053263222
1557969620.083551	-5.1109716797	0.1245410156	10.5285058594	0.3270361819	0.0117179078	0.0063915861
1557969620.083562	-5.1061816406	0.1197509766	10.4806054688	0.3281014463	0.0117179078	0.0063915861
1557969620.083579	-5.1061816406	0.1197509766	10.5189257813	0.3281014463	0.0117179078	0.0063915861
1557969620.083586	-5.0918115234	0.1245410156	10.5285058594	0.3281014463	0.0106526444	0.0063915861
1557969620.083592	-5.0774414063	0.1293310547	10.4901855469	0.3270361819	0.0106526444	0.0053263222
1557969620.083598	-5.1061816406	0.1580712891	10.5093457031	0.3259709174	0.0106526444	0.0053263222
1557969620.083604	-5.1397119141	0.1676513672	10.5189257813	0.3270361819	0.0117179078	0.0063915861
1557969620.083610	-5.1205517578	0.1484912109	10.5237158203	0.3281014463	0.0127831722	0.0074568505
1557969620.083616	-5.1013916016	0.1532812500	10.4997656250	0.3281014463	0.0127831722	0.0063915861
1557969620.083622	-5.1013916016	0.1724414063	10.4997656250	0.3281014463	0.0127831722	0.0053263222
1557969620.092097	-5.1061816406	0.1868115234	10.4997656250	0.3270361819	0.0138484366	0.0042610575
1557969620.092108	-5.1061816406	0.1772314453	10.4758154297	0.3270361819	0.0138484366	0.0042610575
1557969620.092116	-5.0678613281	0.1580712891	10.4614453125	0.3270361819	0.0127831722	0.0042610575
1557969620.092123	-5.0774414063	0.1676513672	10.4758154297	0.3270361819	0.0106526444	0.0053263222
1557969620.092129	-5.1253417969	0.1868115234	10.5045556641	0.3259709174	0.0106526444	0.0053263222
1557969620.092143	-5.1061816406	0.2011816406	10.4949755859	0.3259709174	0.0127831722	0.0063915861
1557969620.092149	-5.0966015625	0.1916015625	10.5045556641	0.3270361819	0.0127831722	0.0063915861
1557969620.092155	-5.1253417969	0.1772314453	10.5093457031	0.3270361819	0.0127831722	0.0063915861
1557969620.092161	-5.1301318359	0.1628613281	10.4949755859	0.3270361819	0.0127831722	0.0053263222
1557969620.092167	-5.1061816406	0.1820214844	10.5237158203	0.3259709174	0.0117179078	0.0053263222
1557969620.102625	-5.0966015625	0.1820214844	10.5285058594	0.3249056530	0.0117179078	0.0063915861
1557969620.102637	-5.0822314453	0.1484912109	10.5189257813	0.3249056530	0.0117179078	0.0063915861
1557969620.102643	-5.0870214844	0.1341210938	10.5716162109	0.3259709174	0.0106526444	0.0053263222
1557969620.102649	-5.0822314453	0.1484912109	10.5572460938	0.3270361819	0.0117179078	0.0042610575
1557969620.102656	-5.0582812500	0.1532812500	10.5332958984	0.3270361819	0.0127831722	0.0042610575
1557969620.102662	-5.0726513672	0.1484912109	10.5524560547	0.3259709174	0.0127831722	0.0053263222
1557969620.102668	-5.0678613281	0.1389111328	10.5237158203	0.3259709174	0.0127831722	0.0063915861
1557969620.102673	-5.0870214844	0.1437011719	10.4758154297	0.3270361819	0.0138484366	0.0053263222
1557969620.102679	-5.1205517578	0.1676513672	10.4279150391	0.3281014463	0.0138484366	0.0053263222
1557969620.102685	-5.0966015625	0.1580712891	10.4662353516	0.3291667107	0.0127831722	0.0042610575
1557969620.112240	-5.0630712891	0.1389111328	10.5428759766	0.3281014463	0.0117179078	0.0042610575
1557969620.112263	-5.0487011719	0.1389111328	10.5764062500	0.3281014463	0.0106526444	0.0042610575
1557969620.112271	-5.0582812500	0.1532812500	10.5476660156	0.3270361819	0.0106526444	0.0053263222
1557969620.112277	-5.0822314453	0.1437011719	10.4806054688	0.3259709174	0.0095873799	0.0042610575
1557969620.112283	-5.0726513672	0.1197509766	10.4662353516	0.3281014463	0.0117179078	0.0053263222
1557969620.112289	-5.0487011719	0.1245410156	10.4758154297	0.3291667107	0.0127831722	0.0053263222
1557969620.112294	-5.0822314453	0.1341210938	10.5237158203	0.3281014463	0.0117179078	0.0053263222
1557969620.112300	-5.1301318359	0.1389111328	10.5237158203	0.3259709174	0.0117179078	0.0053263222
1557969620.112306	-5.1301318359	0.1628613281	10.4758154297	0.3249056530	0.0117179078	0.0063915861
1557969620.112312	-5.1061816406	0.1724414063	10.4566552734	0.3259709174	0.0117179078	0.0063915861
1557969620.122898	-5.0822314453	0.1580712891	10.4710253906	0.3259709174	0.0117179078	0.0053263222
1557969620.122918	-5.0726513672	0.1628613281	10.4901855469	0.3249056530	0.0117179078	0.0053263222
1557969620.122928	-5.0822314453	0.1437011719	10.4949755859	0.3259709174	0.0127831722	0.0053263222
1557969620.122946	-5.0774414063	0.1389111328	10.4806054688	0.3259709174	0.0138484366	0.0053263222
1557969620.122956	-5.0295410156	0.1245410156	10.4518652344	0.3259709174	0.0138484366	0.0053263222
1557969620.122965	-5.0295410156	0.1341210938	10.4662353516	0.3259709174	0.0117179078	0.0053263222
1557969620.122975	-5.0726513672	0.1580712891	10.5237158203	0.3259709174	0.0106526444	0.0063915861
1557969620.122984	-5.0870214844	0.1676513672	10.5189257813	0.3270361819	0.0117179078	0.0063915861
1557969620.122993	-5.0918115234	0.1628613281	10.4422851562	0.3270361819	0.0138484366	0.0063915861
1557969620.123003	-5.0966015625	0.1484912109	10.4614453125	0.3259709174	0.0159789655	0.0063915861
1557969620.131756	-5.0918115234	0.1772314453	10.5332958984	0.3259709174	0.0138484366	0.0053263222
1557969620.131778	-5.1061816406	0.1963916016	10.5285058594	0.3270361819	0.0106526444	0.0042610575
1557969620.131785	-5.1157617187	0.1772314453	10.4662353516	0.3270361819	0.0106526444	0.0042610575
1557969620.131791	-5.0630712891	0.1676513672	10.4566552734	0.3259709174	0.0127831722	0.0042610575
1557969620.131797	-5.0534912109	0.1916015625	10.4806054688	0.3259709174	0.0127831722	0.0042610575
1557969620.131803	-5.0822314453	0.1628613281	10.5093457031	0.3259709174	0.0127831722	0.0042610575
1557969620.131809	-5.0822314453	0.1484912109	10.5668261719	0.3270361819	0.0127831722	0.0053263222
1557969620.131814	-5.0774414063	0.1437011719	10.5476660156	0.3270361819	0.0117179078	0.0042610575
1557969620.131820	-5.0678613281	0.1149609375	10.5285058594	0.3270361819	0.0117179078	0.0053263222
1557969620.131826	-5.0678613281	0.1149609375	10.5380859375	0.3270361819	0.0117179078	0.0063915861
1557969620.141744	-5.0822314453	0.1149609375	10.5572460938	0.3270361819	0.0117179078	0.0074568505
1557969620.141758	-5.0726513672	0.1245410156	10.5764062500	0.3270361819	0.0106526444	0.0063915861
1557969620.141765	-5.0726513672	0.1341210938	10.5380859375	0.3270361819	0.0117179078	0.0042610575
1557969620.141773	-5.0870214844	0.1389111328	10.4997656250	0.3259709174	0.0117179078	0.0042610575
1557969620.141779	-5.0678613281	0.1437011719	10.4949755859	0.3270361819	0.0106526444	0.0042610575
1557969620.141785	-5.0199609375	0.1389111328	10.5045556641	0.3281014463	0.0127831722	0.0053263222
1557969620.141791	-4.9912207031	0.1293310547	10.4806054688	0.3281014463	0.0138484366	0.0053263222
1557969620.141797	-5.0199609375	0.0958007813	10.4518652344	0.3270361819	0.0149137011	0.0053263222
1557969620.141803	-5.0582812500	0.0814306641	10.4662353516	0.3259709174	0.0149137011	0.0063915861
1557969620.141809	-5.0534912109	0.1197509766	10.4614453125	0.3249056530	0.0127831722	0.0063915861
1557969620.151711	-5.0726513672	0.1628613281	10.4039648437	0.3238403886	0.0117179078	0.0063915861
1557969620.151732	-5.1013916016	0.1772314453	10.4183349609	0.3259709174	0.0127831722	0.0063915861
1557969620.151742	-5.0774414063	0.1580712891	10.4614453125	0.3270361819	0.0127831722	0.0053263222
1557969620.151752	-5.0391210938	0.1484912109	10.4518652344	0.3281014463	0.0138484366	0.0042610575
1557969620.151762	-5.0295410156	0.1437011719	10.4327050781	0.3291667107	0.0149137011	0.0042610575
1557969620.151771	-5.0295410156	0.1293310547	10.4470751953	0.3291667107	0.0138484366	0.0042610575
1557969620.151781	-5.0487011719	0.1437011719	10.4949755859	0.3291667107	0.0106526444	0.0053263222
1557969620.151790	-5.0774414063	0.1676513672	10.4901855469	0.3291667107	0.0106526444	0.0063915861
1557969620.151799	-5.0726513672	0.1628613281	10.4374951172	0.3291667107	0.0117179078	0.0063915861
1557969620.151809	-5.0582812500	0.1484912109	10.3943847656	0.3281014463	0.0127831722	0.0063915861
1557969620.162788	-5.0774414063	0.1820214844	10.4279150391	0.3281014463	0.0138484366	0.0053263222
1557969620.162814	-5.1061816406	0.1820214844	10.4901855469	0.3270361819	0.0127831722	0.0042610575
1557969620.162822	-5.1109716797	0.1437011719	10.5189257813	0.3270361819	0.0127831722	0.0053263222
1557969620.162828	-5.0918115234	0.1628613281	10.5189257813	0.3270361819	0.0127831722	0.0063915861
1557969620.162835	-5.0534912109	0.1916015625	10.4997656250	0.3281014463	0.0117179078	0.0063915861
1557969620.162849	-5.0295410156	0.1676513672	10.5093457031	0.3270361819	0.0117179078	0.0063915861
1557969620.162856	-5.0678613281	0.1005908203	10.5476660156	0.3259709174	0.0106526444	0.0063915861
1557969620.162862	-5.0870214844	0.0862207031	10.5428759766	0.3270361819	0.0095873799	0.0074568505
1557969620.162868	-5.0726513672	0.1149609375	10.4758154297	0.3270361819	0.0095873799	0.0063915861
1557969620.173026	-5.0678613281	0.1437011719	10.4039648437	0.3259709174	0.0127831722	0.0053263222
1557969620.173046	-5.0966015625	0.1724414063	10.3895947266	0.3270361819	0.0149137011	0.0053263222
1557969620.173058	-5.1109716797	0.1868115234	10.4374951172	0.3291667107	0.0149137011	0.0063915861
1557969620.173066	-5.1205517578	0.1628613281	10.4806054688	0.3281014463	0.0149137011	0.0053263222
1557969620.173072	-5.1013916016	0.1293310547	10.4997656250	0.3281014463	0.0138484366	0.0053263222
1557969620.173078	-5.0487011719	0.1341210938	10.4949755859	0.3270361819	0.0127831722	0.0063915861
1557969620.173084	-5.0391210938	0.1676513672	10.5045556641	0.3270361819	0.0138484366	0.0063915861
1557969620.173090	-5.0534912109	0.1628613281	10.5476660156	0.3270361819	0.0138484366	0.0074568505
1557969620.173096	-5.0630712891	0.1101708984	10.5332958984	0.3270361819	0.0127831722	0.0053263222
1557969620.173102	-5.0870214844	0.1101708984	10.4997656250	0.3270361819	0.0127831722	0.0042610575
1557969620.181945	-5.1061816406	0.1484912109	10.4997656250	0.3270361819	0.0138484366	0.0042610575
1557969620.181962	-5.1061816406	0.1628613281	10.5285058594	0.3270361819	0.0138484366	0.0063915861
1557969620.181969	-5.0774414063	0.1532812500	10.5045556641	0.3259709174	0.0127831722	0.0074568505
1557969620.181977	-5.0582812500	0.1532812500	10.4853955078	0.3259709174	0.0138484366	0.0074568505
1557969620.181983	-5.0582812500	0.1676513672	10.5141357422	0.3281014463	0.0149137011	0.0074568505
1557969620.181989	-5.0822314453	0.1628613281	10.4901855469	0.3281014463	0.0138484366	0.0074568505
1557969620.181995	-5.1013916016	0.1724414063	10.4662353516	0.3259709174	0.0138484366	0.0074568505
1557969620.182002	-5.1061816406	0.1724414063	10.4997656250	0.3270361819	0.0138484366	0.0063915861
1557969620.182008	-5.1109716797	0.1341210938	10.5045556641	0.3270361819	0.0127831722	0.0053263222
1557969620.182014	-5.0966015625	0.1245410156	10.4901855469	0.3259709174	0.0117179078	0.0063915861
1557969620.192745	-5.0774414063	0.1484912109	10.4997656250	0.3259709174	0.0138484366	0.0063915861
1557969620.192767	-5.0487011719	0.1580712891	10.5093457031	0.3249056530	0.0138484366	0.0053263222
1557969620.192774	-5.0391210938	0.1341210938	10.5428759766	0.3249056530	0.0138484366	0.0053263222
1557969620.192780	-5.0534912109	0.1245410156	10.5476660156	0.3270361819	0.0127831722	0.0063915861
1557969620.192786	-5.0726513672	0.1437011719	10.4901855469	0.3270361819	0.0127831722	0.0074568505
1557969620.192791	-5.0678613281	0.1772314453	10.4135449219	0.3259709174	0.0149137011	0.0063915861
1557969620.192797	-5.0726513672	0.2059716797	10.4758154297	0.3259709174	0.0138484366	0.0053263222
1557969620.192803	-5.0918115234	0.2251318359	10.5572460938	0.3270361819	0.0149137011	0.0063915861
1557969620.192809	-5.1109716797	0.2347119141	10.5716162109	0.3270361819	0.0138484366	0.0063915861
1557969620.192815	-5.1061816406	0.2059716797	10.5237158203	0.3270361819	0.0138484366	0.0074568505
1557969620.202224	-5.0966015625	0.1868115234	10.4135449219	0.3270361819	0.0138484366	0.0063915861
1557969620.202236	-5.1061816406	0.1916015625	10.4183349609	0.3259709174	0.0138484366	0.0053263222
1557969620.202243	-5.0918115234	0.1820214844	10.5093457031	0.3281014463	0.0138484366	0.0042610575
1557969620.202250	-5.0726513672	0.1628613281	10.5189257813	0.3291667107	0.0149137011	0.0042610575
1557969620.202257	-5.0918115234	0.1389111328	10.4614453125	0.3291667107	0.0138484366	0.0031957930
1557969620.202263	-5.0918115234	0.1341210938	10.4518652344	0.3270361819	0.0127831722	0.0042610575
1557969620.202269	-5.0726513672	0.1389111328	10.4758154297	0.3270361819	0.0138484366	0.0042610575
1557969620.202275	-5.0678613281	0.1532812500	10.4997656250	0.3259709174	0.0149137011	0.0053263222
1557969620.202289	-5.0822314453	0.1437011719	10.5237158203	0.3259709174	0.0149137011	0.0063915861
1557969620.202295	-5.0822314453	0.1245410156	10.5332958984	0.3270361819	0.0127831722	0.0053263222
1557969620.212787	-5.0726513672	0.1293310547	10.5093457031	0.3281014463	0.0127831722	0.0063915861
1557969620.212800	-5.0822314453	0.1149609375	10.4518652344	0.3281014463	0.0138484366	0.0063915861
1557969620.212806	-5.0582812500	0.1437011719	10.4327050781	0.3281014463	0.0138484366	0.0053263222
1557969620.212812	-5.0391210938	0.1628613281	10.4231250000	0.3270361819	0.0138484366	0.0042610575
1557969620.212819	-5.0678613281	0.1245410156	10.4183349609	0.3259709174	0.0149137011	0.0042610575
1557969620.212825	-5.0918115234	0.1293310547	10.4374951172	0.3259709174	0.0149137011	0.0053263222
1557969620.212831	-5.1061816406	0.1580712891	10.4422851562	0.3259709174	0.0138484366	0.0053263222
1557969620.212837	-5.1061816406	0.1532812500	10.4327050781	0.3249056530	0.0127831722	0.0053263222
1557969620.212842	-5.0966015625	0.1724414063	10.4422851562	0.3259709174	0.0127831722	0.0053263222
